"Time (s)","Linear Acceleration x (m/s^2)","Linear Acceleration y (m/s^2)","Linear Acceleration z (m/s^2)","Absolute acceleration (m/s^2)"
7.673958316E-3,7.460348430E-1,6.237745339E-1,-1.427814049E-1,9.828780116E-1
1.762095833E-2,7.509979597E-1,8.775203043E-1,-1.616214260E-1,1.166259536E0
2.756695834E-2,7.016604696E-1,1.077369949E0,-4.736566275E-2,1.286583432E0
3.751395832E-2,6.429686040E-1,1.309583933E0,8.019660920E-2,1.461112658E0
4.745995832E-2,5.886220966E-1,1.421653422E0,3.204625010E-1,1.571709464E0
5.740695831E-2,4.906125297E-1,1.404090140E0,4.440621150E-1,1.552211628E0
6.735395832E-2,3.335807659E-1,1.398805427E0,5.327751938E-1,1.533552137E0
7.729995833E-2,1.747503621E-1,1.431990130E0,4.618858901E-1,1.514751464E0
8.724695831E-2,3.247150714E-2,1.487082596E0,2.882346949E-1,1.515106691E0
9.719295832E-2,-1.982630029E-2,1.603624620E0,2.934887105E-1,1.630380517E0
1.071399583E-1,-3.832689062E-2,1.678857821E0,3.934421843E-1,1.724769343E0
1.170869583E-1,-1.049823716E-1,1.708744109E0,4.575650901E-1,1.772059125E0
1.270329583E-1,-1.942401003E-1,1.809467661E0,5.503596716E-1,1.901262266E0
1.369799583E-1,-2.761169069E-1,2.002019981E0,5.071446548E-1,2.083631506E0
1.469259583E-1,-3.421094781E-1,2.181444132E0,3.550750941E-1,2.236473948E0
1.568729583E-1,-3.154723410E-1,2.323455459E0,3.841243538E-1,2.376030216E0
1.668199583E-1,-2.355777222E-1,2.563414664E0,5.397895136E-1,2.630202335E0
1.767659583E-1,-1.746614296E-1,2.798911859E0,6.206817953E-1,2.872222154E0
1.867129583E-1,4.071050808E-2,2.884279454E0,6.813760400E-1,2.963949834E0
1.966589583E-1,1.626661773E-1,2.940403953E0,7.927894717E-1,3.049746029E0
2.066059583E-1,2.206639602E-1,2.901759705E0,8.922216663E-1,3.043839922E0
2.165529583E-1,1.126087488E-1,2.807670404E0,1.004379741E0,2.984036275E0
2.264989583E-1,2.203274712E-2,2.865581812E0,9.186928886E-1,3.009325703E0
2.364459583E-1,2.479718277E-2,2.868532317E0,7.434370713E-1,2.963408719E0
2.463919583E-1,-1.571293026E-1,2.778671722E0,6.467575997E-1,2.857271697E0
2.563389583E-1,-3.921670893E-1,2.641459790E0,5.616333957E-1,2.728834352E0
2.662859583E-1,-5.130137610E-1,2.563797072E0,5.744811903E-1,2.676988454E0
2.762319583E-1,-7.391551553E-1,2.650378549E0,7.335511838E-1,2.847622541E0
2.861789583E-1,-7.473748787E-1,2.670042735E0,8.819893312E-1,2.909570861E0
2.961249583E-1,-5.817478175E-1,2.709210309E0,9.784906089E-1,2.938655286E0
3.060719583E-1,-4.498423800E-1,2.826762732E0,1.024098306E0,3.040020239E0
3.160189583E-1,-2.033260704E-1,2.943491868E0,1.168001061E0,3.173281006E0
3.259649583E-1,6.125152085E-2,2.882444597E0,1.416604351E0,3.212321045E0
3.359119583E-1,3.542695305E-1,2.547402064E0,1.618702251E0,3.038907888E0
3.458579583E-1,4.425483074E-1,2.109143896E0,1.591172975E0,2.678837138E0
3.558049583E-1,5.250225532E-1,1.787445293E0,1.559067668E0,2.429259424E0
3.657519583E-1,5.726988128E-1,1.296913601E0,1.632029225E0,2.161825203E0
3.756979583E-1,5.904899897E-1,4.565160996E-1,1.671053542E0,1.830165380E0
3.856449583E-1,4.899137143E-1,-5.247221160E-1,1.677867887E0,1.824990245E0
3.955909583E-1,2.157292939E-1,-1.547986025E0,1.650459648E0,2.273063332E0
4.055379583E-1,-6.992224731E-2,-2.651173770E0,1.356579759E0,2.978912574E0
4.154849583E-1,-2.170748113E-1,-3.668078247E0,9.205096185E-1,3.788041375E0
4.254309583E-1,-2.598001968E-1,-4.510136358E0,6.049271306E-1,4.557934065E0
4.353779583E-1,-3.247277525E-1,-5.199919524E0,4.298522115E-1,5.227751342E0
4.453239583E-1,-3.178207290E-1,-5.872552807E0,2.169419333E-2,5.881186711E0
4.552709583E-1,-1.044409195E-1,-6.357442521E0,-4.162176740E-1,6.371908699E0
4.652179583E-1,3.204640359E-1,-6.580287511E0,-6.575123104E-1,6.620815914E0
4.751639583E-1,6.983264603E-1,-6.641427167E0,-5.246553116E-1,6.698617608E0
4.851109583E-1,9.452611747E-1,-6.812963424E0,-7.321634933E-2,6.878615409E0
4.950569583E-1,1.159959093E0,-6.958432794E0,3.090311944E-1,7.061217482E0
5.050039583E-1,1.383816821E0,-6.908401678E0,6.496722905E-1,7.075523785E0
5.149509583E-1,1.549035892E0,-6.953827527E0,8.585349798E-1,7.175814364E0
5.248969583E-1,1.610203615E0,-7.207089148E0,7.388095848E-1,7.421639258E0
5.348439583E-1,1.422393680E0,-7.463518791E0,6.957120971E-1,7.629635105E0
5.447899583E-1,1.007652939E0,-7.858746130E0,7.683979578E-1,7.960256943E0
5.547369583E-1,4.706668000E-1,-8.203081058E0,5.391776025E-1,8.234244262E0
5.646839583E-1,1.970701709E-2,-8.106238303E0,1.904343121E-1,8.108498814E0
5.746299583E-1,-1.960972673E-1,-8.064492692E0,-2.130827710E-2,8.066904645E0
5.845769583E-1,-3.061021049E-1,-7.870633519E0,-3.563044712E-2,7.876664270E0
5.945229583E-1,-3.167062497E-1,-7.498317325E0,-1.943918538E-1,7.507519813E0
6.044699583E-1,-1.384046178E-1,-7.005817460E0,-1.261817443E-1,7.008320481E0
6.144169583E-1,6.756735429E-2,-6.448138683E0,1.673088665E-1,6.450662763E0
6.243629583E-1,9.230122268E-2,-6.006364583E0,2.502584179E-1,6.012284449E0
6.343099583E-1,4.832913771E-2,-5.623452065E0,3.980666741E-1,5.637730564E0
6.442559583E-1,-1.278137022E-1,-5.328112126E0,4.754663408E-1,5.350811472E0
6.542029583E-1,-3.453885967E-1,-4.981297393E0,3.425661457E-1,5.004994363E0
6.641499583E-1,-3.320583337E-1,-4.328708366E0,1.325879904E-1,4.343450060E0
6.740959583E-1,1.280469330E-1,-3.419489720E0,-3.378168544E-2,3.422053063E0
6.840429583E-1,6.756799018E-1,-2.382715235E0,-1.036430669E-1,2.478833820E0
6.939889583E-1,1.103827065E0,-1.607980211E0,7.616757612E-2,1.951880132E0
7.039359583E-1,1.298730331E0,-1.187541432E0,7.029130894E-1,1.895004469E0
7.138829583E-1,1.251927024E0,-8.579987901E-1,1.113708567E0,1.882506300E0
7.238285833E-1,1.103095286E0,-2.939085406E-1,7.415115832E-1,1.361264437E0
7.337755833E-1,1.123839526E0,4.315391332E-1,2.491171876E-1,1.229349697E0
7.437215833E-1,1.271873192E0,1.105635974E0,-1.178735087E-1,1.689374585E0
7.536685833E-1,1.347597997E0,1.503707984E0,-2.380525745E-2,2.019337702E0
7.636145833E-1,1.366621767E0,1.745430710E0,4.242891705E-1,2.257034496E0
7.735615833E-1,1.303471838E0,1.661751207E0,8.921348351E-1,2.292675396E0
7.835085833E-1,1.044056607E0,1.422388417E0,1.353312920E0,2.223667886E0
7.934545833E-1,6.647977218E-1,1.415495135E0,1.360921317E0,2.073086905E0
8.034015833E-1,1.983752695E-1,1.547176185E0,9.172994971E-1,1.809570464E0
8.133485833E-1,3.142353991E-2,1.945054067E0,7.680018090E-1,2.091422851E0
8.232945833E-1,1.616201470E-2,2.492018407E0,8.706993811E-1,2.639798167E0
8.332415833E-1,4.829553450E-2,2.743106033E0,1.351603632E0,3.058397546E0
8.431875833E-1,2.177035332E-2,2.625500985E0,1.758980463E0,3.160338848E0
8.531345833E-1,-3.925042909E-1,2.611286404E0,1.693403208E0,3.136955646E0
8.630815833E-1,-9.566860494E-1,2.650259265E0,1.251215126E0,3.082963130E0
8.730275833E-1,-1.256953145E0,3.244951503E0,7.521071765E-1,3.560239692E0
8.829745833E-1,1.073621884E0,1.415161492E1,8.523538882E-1,1.421785413E1
8.929205833E-1,3.893419705E0,2.895948625E1,6.699510484E0,2.997822546E1
9.028675833E-1,3.352539101E-1,2.392687194E1,1.212753691E1,2.682694070E1
9.128135833E-1,-1.911739483E-1,1.088551112E1,7.929322608E0,1.346866945E1
9.227605833E-1,-2.805710417E0,3.358424324E-1,1.150817994E0,3.051095400E0
9.327075833E-1,-6.456296718E0,-1.086400389E0,-7.458716472E0,9.924539512E0
9.426535833E-1,-6.642448091E0,-3.589938980E-1,-9.016298947E0,1.120467045E1
9.526005833E-1,-4.912413685E0,-5.630202091E-1,-5.565668710E0,7.444828283E0
9.625465833E-1,-1.839198853E0,6.005698586E-1,-2.208217948E0,2.935909243E0
9.724935833E-1,3.667347345E-1,3.575223877E0,-4.300068703E-1,3.619616837E0
9.824405833E-1,2.070247632E0,7.274091808E0,6.664918064E-1,7.592268977E0
9.923865833E-1,3.534755298E0,9.906701252E0,2.021740301E0,1.071095974E1
1.002333583E0,4.060934540E0,1.087572756E1,4.027835791E0,1.228804705E1
1.012279583E0,3.754164756E0,1.025938191E1,6.127655717E0,1.252584667E1
1.022226583E0,3.025361073E0,8.237139335E0,6.650913105E0,1.101080920E1
1.032173583E0,1.257258954E0,6.546691164E0,4.976413214E0,8.318927440E0
1.042119583E0,-4.424824896E-1,5.280923926E0,2.208048964E0,5.741030264E0
1.052066583E0,-1.311029072E0,3.928892716E0,3.638500106E-1,4.157809764E0
1.062012583E0,-1.910250417E0,3.003081427E0,-7.660928392E-1,3.640666553E0
1.071959583E0,-2.132528080E0,2.340356251E0,-1.359004599E0,3.445553206E0
1.081906583E0,-2.088650282E0,1.836264866E0,-1.234285098E0,3.042661394E0
1.091852583E0,-2.002368475E0,1.790890473E0,-5.971444134E-1,2.751971956E0
1.101799583E0,-1.322618546E0,2.582229835E0,7.465913518E-1,2.995768580E0
1.111745583E0,-7.093706813E-1,2.917185829E0,1.991339603E0,3.602584259E0
1.121692583E0,-3.759291887E-1,2.824383500E0,2.781381322E0,3.981776861E0
1.131639583E0,-2.326861462E-1,2.657834333E0,3.066019102E0,4.064320278E0
1.141585583E0,-2.187664839E-1,2.524221362E0,3.248822359E0,4.119999877E0
1.151532583E0,-3.542504905E-1,2.281531507E0,3.444336294E0,4.146604868E0
1.161478583E0,-6.582175577E-1,1.640999438E0,3.398406415E0,3.830834853E0
1.171425583E0,-9.514649244E-1,9.299943870E-1,2.983807250E0,3.266998740E0
1.181372583E0,-1.085074387E0,5.025447965E-1,2.560688692E0,2.826139465E0
1.191318583E0,-1.060456586E0,2.628364366E-1,2.490096427E0,2.719233601E0
1.201265583E0,-9.381380235E-1,-6.518242121E-2,2.404073360E0,2.581457034E0
1.211211583E0,-6.557498134E-1,-5.214891905E-1,2.296645975E0,2.444696613E0
1.221158583E0,-4.324844087E-1,-8.243901640E-1,2.155751467E0,2.348175098E0
1.231105583E0,-3.318504652E-1,-9.927636623E-1,1.986007966E0,2.244979301E0
1.241051583E0,-2.684654050E-1,-1.208063405E0,2.004123809E0,2.355419943E0
1.250998583E0,-3.251966261E-1,-1.588260477E0,1.958841656E0,2.542712099E0
1.260944583E0,-2.184075379E-1,-1.933617498E0,1.881610316E0,2.706849804E0
1.270891583E0,5.518602133E-3,-2.331695940E0,1.666216725E0,2.865853204E0
1.280838583E0,1.669656350E-1,-2.800590010E0,1.538931757E0,3.199920762E0
1.290784583E0,4.262783202E-1,-3.184090174E0,1.711627225E0,3.640029011E0
1.300731583E0,4.108356044E-1,-3.688467488E0,2.130602592E0,4.279374453E0
1.310677583E0,2.182748792E-1,-4.212329478E0,2.545628311E0,4.926620247E0
1.320624583E0,-1.284475404E-1,-4.867658511E0,2.486257145E0,5.467364333E0
1.330571583E0,-3.252518823E-1,-5.267114557E0,2.041421005E0,5.658240386E0
1.340517583E0,-3.807283641E-1,-5.603455757E0,1.556507464E0,5.828068805E0
1.350464583E0,-3.401821262E-1,-6.044155723E0,1.191028127E0,6.169772304E0
1.360410583E0,-2.026208597E-1,-6.446062337E0,7.122326741E-1,6.488455151E0
1.370357583E0,3.423581310E-3,-6.786617040E0,3.777807096E-1,6.797124453E0
1.380304583E0,2.404448166E-2,-7.108858849E0,2.947932243E-1,7.115009158E0
1.390250583E0,1.032727189E-1,-7.301741536E0,1.827766523E-1,7.304758861E0
1.400197583E0,3.873500800E-1,-7.255700560E0,4.988581270E-2,7.266203913E0
1.410143583E0,6.514593458E-1,-7.083430477E0,3.388900012E-2,7.113405308E0
1.420090583E0,8.548341309E-1,-6.830578746E0,5.604263842E-3,6.883863654E0
1.430037583E0,1.040138973E0,-6.631369956E0,1.853304237E-2,6.712473468E0
1.439983583E0,1.162287747E0,-6.558803671E0,4.533053935E-3,6.660993841E0
1.449930583E0,1.207942075E0,-6.398163700E0,-1.544401681E-1,6.513023457E0
1.459876583E0,1.211627429E0,-6.053321818E0,-5.312756753E-1,6.196208510E0
1.469823583E0,1.156131798E0,-5.687958548E0,-8.038029948E-1,5.859659754E0
1.479770583E0,1.019135628E0,-5.437715845E0,-7.563665807E-1,5.583859010E0
1.489716583E0,9.114446801E-1,-5.293981928E0,-8.272789809E-1,5.435197013E0
1.499663583E0,8.465905800E-1,-5.133178235E0,-1.070171442E0,5.311450021E0
1.509609583E0,8.630358741E-1,-4.691257371E0,-1.214009146E0,4.922046815E0
1.519556583E0,1.003914449E0,-4.183649470E0,-1.134153138E0,4.449389896E0
1.529502583E0,1.233301450E0,-3.806957220E0,-9.651379073E-1,4.116484777E0
1.539449583E0,1.320641164E0,-3.556515711E0,-7.432205781E-1,3.865911783E0
1.549396583E0,1.204851530E0,-3.306602206E0,-5.899843517E-1,3.568384353E0
1.559342583E0,9.810550515E-1,-3.134554317E0,-4.653953889E-1,3.317302013E0
1.569289583E0,5.667444469E-1,-3.151460956E0,-3.202341673E-1,3.217989333E0
1.579235583E0,1.932176050E-1,-3.201112003E0,-3.869568913E-1,3.230199179E0
1.589182583E0,6.333850175E-3,-3.117164698E0,-5.945776320E-1,3.173370201E0
1.599129583E0,1.950846758E-2,-2.918574543E0,-7.888996115E-1,3.023378994E0
1.609075583E0,1.961905670E-1,-2.659479740E0,-6.755150834E-1,2.750935087E0
1.619022583E0,4.470507731E-1,-2.391569674E0,-3.797439122E-1,2.462451083E0
1.628968583E0,5.885532822E-1,-2.188076629E0,-1.036357579E-1,2.268218391E0
1.638915583E0,5.402008653E-1,-2.035606973E0,5.385051727E-2,2.106754044E0
1.648862583E0,3.421243520E-1,-1.854947305E0,-7.654253796E-2,1.887786359E0
1.658808583E0,1.899459417E-1,-1.597989074E0,-1.258985929E-1,1.614155816E0
1.668755583E0,3.307549162E-1,-1.263769829E0,1.296479738E-1,1.312753439E0
1.678701583E0,4.404367316E-1,-1.069486733E0,4.904996784E-1,1.256334478E0
1.688648583E0,4.437611295E-1,-1.052233939E0,9.134450126E-1,1.462361786E0
1.698595583E0,4.258997861E-1,-1.258093936E0,1.249703182E0,1.823718461E0
1.708541583E0,3.751928781E-1,-1.260479600E0,1.132043170E0,1.735252217E0
1.718488583E0,9.721620943E-2,-1.131011721E0,6.215939610E-1,1.294224693E0
1.728434625E0,-7.293297864E-2,-1.085229777E0,3.860997625E-1,1.154173260E0
1.738381625E0,-3.094809915E-1,-1.144557381E0,3.628489673E-1,1.239939295E0
1.748328625E0,-4.071461575E-1,-1.142235451E0,4.243242538E-1,1.284725999E0
1.758274625E0,-2.953866802E-1,-1.122064896E0,6.683355796E-1,1.339012834E0
1.768221625E0,-1.573804405E-1,-1.068541823E0,8.262793994E-1,1.359885244E0
1.778167625E0,3.076658696E-2,-8.285299927E-1,8.625227809E-1,1.196392109E0
1.788114625E0,1.559724310E-1,-4.942429197E-1,9.057149935E-1,1.043514788E0
1.798061625E0,1.465464270E-1,-2.640988505E-1,9.213633120E-1,9.696052861E-1
1.808007625E0,6.273148768E-2,-1.266097605E-1,8.771530992E-1,8.884609335E-1
1.817954625E0,-2.766142309E-2,-2.878584266E-2,9.189519203E-1,9.198186837E-1
1.827900625E0,-7.943946786E-2,1.860642493E-1,9.939693582E-1,1.014349850E0
1.837847625E0,5.328929421E-2,5.527583456E-1,8.518451073E-1,1.016868538E0
1.847794625E0,1.552786589E-1,8.384614885E-1,7.199740952E-1,1.116016052E0
1.857740625E0,1.972485476E-1,9.645806676E-1,9.917012233E-1,1.397424120E0
1.867687625E0,5.663576536E-2,8.590992361E-1,1.161314258E0,1.445652072E0
1.877633625E0,-1.621722338E-1,6.592069066E-1,1.195384887E0,1.374699461E0
1.887580625E0,-3.173498089E-1,6.175712228E-1,1.250520623E0,1.430352035E0
1.897527625E0,-3.215478174E-1,8.312091869E-1,1.030297671E0,1.362283011E0
1.907473625E0,-8.660618082E-2,1.159125718E0,7.766757149E-1,1.397962170E0
1.917420625E0,2.542426376E-1,1.312984089E0,9.640047169E-1,1.648596867E0
1.927366625E0,2.917781076E-1,1.251706438E0,1.234472939E0,1.782084989E0
1.937313625E0,-3.901993185E-3,8.108088362E-1,1.439813704E0,1.652419347E0
1.947260625E0,-2.932372802E-1,5.122131675E-1,1.348438096E0,1.471949636E0
1.957206625E0,-6.050049716E-1,7.778796566E-1,8.189037216E-1,1.281300543E0
1.967153625E0,-6.250617984E-1,1.255783702E0,2.819859217E-1,1.430807820E0
1.977099625E0,-5.697347130E-1,1.681576776E0,1.222641098E-1,1.779675984E0
1.987046625E0,-5.261077234E-1,1.768686256E0,5.067756955E-1,1.913599230E0
1.996993625E0,-4.910378781E-1,1.461481732E0,9.867414688E-1,1.830493315E0
2.006939625E0,-5.916451071E-1,1.525042135E0,7.015284687E-1,1.779870680E0
2.016886625E0,-5.123372747E-1,2.067321686E0,-2.104309125E-1,2.140231203E0
2.026832625E0,-1.698124981E-1,2.383972971E0,-4.940002602E-1,2.440532661E0
2.036779625E0,1.956501746E-1,2.410750296E0,-1.025006671E-1,2.420847448E0
2.046726625E0,4.874198037E-1,2.324830724E0,5.226726669E-1,2.432201200E0
2.056672625E0,4.517140737E-1,2.166289319E0,1.069717990E0,2.457875423E0
2.066619625E0,2.270451911E-1,1.823778137E0,1.211083784E0,2.201008892E0
2.076565625E0,-9.506447062E-2,1.324209573E0,9.749664921E-1,1.647157524E0
2.086512625E0,-1.051838173E-1,1.862998921E0,8.434570572E-1,2.047742274E0
2.096459625E0,2.457114915E0,1.071335974E1,1.269631516E0,1.106460368E1
2.106405625E0,3.458340083E0,1.917581860E1,4.948213263E0,2.010365513E1
2.116352625E0,1.439972310E0,1.521035974E1,7.916811320E0,1.720768622E1
2.126298625E0,1.177415663E0,7.156879692E0,6.087196493E0,9.468959590E0
2.136245625E0,-4.195058557E-1,-1.036514284E0,2.192416871E0,2.461105191E0
2.146192625E0,-2.829596585E0,-3.461448755E0,-3.241601048E0,5.522338425E0
2.156138625E0,-3.971586454E0,-2.187365608E0,-6.506240126E0,7.930272873E0
2.166085625E0,-3.225753340E0,-1.649625835E0,-5.791753643E0,6.831629400E0
2.176031625E0,-2.220635534E0,-1.320674347E0,-2.444776705E0,3.557012235E0
2.185978625E0,-1.454101814E0,-8.477410197E-2,-3.730049962E-1,1.503572899E0
2.195925625E0,-5.122640018E-1,1.507886404E0,5.189659707E-1,1.674951192E0
2.205871625E0,2.309167787E-2,2.308169668E0,6.587432224E-1,2.400442266E0
2.215818625E0,1.723092592E-1,1.869819113E0,4.417676675E-1,1.929008208E0
2.225764625E0,-2.456543934E-1,1.105234271E0,2.625873452E-1,1.162256851E0
2.235711625E0,-5.599251316E-1,9.238045245E-1,3.489007267E-1,1.135192790E0
2.245657625E0,-3.199342051E-1,1.297010665E0,8.518660842E-1,1.584383283E0
2.255604625E0,3.498156698E-1,1.614834318E0,1.695431169E0,2.367392600E0
2.265551625E0,8.250504608E-1,1.720925614E0,2.339021624E0,3.018826823E0
2.275497625E0,8.411285497E-1,1.708778023E0,2.138043613E0,2.863328493E0
2.285444625E0,6.008477475E-1,1.360421965E0,1.228423410E0,1.928934942E0
2.295391625E0,2.132527788E-1,8.097768027E-1,2.363747160E-1,8.701081681E-1
2.305337625E0,-7.756433889E-2,3.369949186E-1,-2.441148216E-1,4.232893194E-1
2.315284625E0,-2.270172706E-1,4.444468617E-2,-1.955488716E-1,3.029051543E-1
2.325230625E0,-3.552816470E-1,4.370208979E-3,-1.152100289E-1,3.735204120E-1
2.335177625E0,-2.946232165E-1,2.735385954E-1,-4.721524313E-2,4.047906645E-1
2.345123625E0,-1.640999146E-1,6.445438439E-1,9.781982481E-2,6.722605646E-1
2.355070625E0,3.025760511E-2,1.034101723E0,3.351833050E-1,1.087487813E0
2.365017625E0,1.330588008E-1,1.301588450E0,5.103116530E-1,1.404370009E0
2.374963625E0,4.129859179E-2,1.527086322E0,5.949074149E-1,1.639394108E0
2.384910625E0,-2.349187410E-1,1.897098128E0,5.328922842E-1,1.984475323E0
2.394857625E0,-5.370849937E-1,2.361877513E0,2.643021874E-1,2.436551112E0
2.404803625E0,-6.099137092E-1,2.914186208E0,-6.910473347E-2,2.978128850E0
2.414750625E0,-5.642126025E-1,3.345327730E0,-2.093227190E-1,3.399024784E0
2.424696625E0,-3.851296364E-1,3.525487461E0,3.611693546E-2,3.546645050E0
2.434643625E0,-2.617441585E-1,3.617404522E0,4.134015088E-1,3.650346050E0
2.444589625E0,-2.579911414E-1,3.657933328E0,6.909479320E-1,3.731547226E0
2.454536625E0,-1.244876232E-1,3.564231697E0,9.739162590E-1,3.696993053E0
2.464483625E0,8.382217526E-2,3.417817417E0,1.141823223E0,3.604478093E0
2.474429625E0,1.330983792E-1,3.258932195E0,1.240547173E0,3.489600482E0
2.484376625E0,2.507306537E-1,3.110211189E0,1.253750625E0,3.362762277E0
2.494322625E0,3.172356055E-1,2.899569338E0,1.200764837E0,3.154358409E0
2.504269625E0,1.945897821E-1,2.597783428E0,1.089509938E0,2.823716670E0
2.514216625E0,-1.537280504E-2,2.312275583E0,9.133410052E-1,2.486171049E0
2.524162625E0,-1.579471454E-1,2.084837020E0,8.358705872E-1,2.251704319E0
2.534109625E0,-3.083532829E-1,1.811781405E0,6.644395798E-1,1.954255244E0
2.544055625E0,-5.385050265E-1,1.658283808E0,3.738902646E-1,1.783167625E0
2.554002625E0,-5.689139832E-1,1.680523108E0,4.009891490E-1,1.818959409E0
2.563949625E0,-5.783516085E-1,1.556967348E0,7.098917413E-1,1.806262492E0
2.573895625E0,-6.657253095E-1,1.276634873E0,8.517720902E-1,1.672872523E0
2.583842625E0,-6.984382883E-1,1.023241689E0,7.383337677E-1,1.442212311E0
2.593788625E0,-6.089149316E-1,9.897377282E-1,5.592277050E-1,1.289609937E0
2.603735625E0,-3.931708004E-1,1.144662631E0,6.089816264E-1,1.354878016E0
2.613682625E0,-1.520002712E-1,1.205112315E0,9.349031246E-1,1.532789492E0
2.623628625E0,-5.552662164E-2,1.086418515E0,1.226558733E0,1.639461717E0
2.633575625E0,2.688421849E-2,8.408892524E-1,1.232204804E0,1.492027539E0
2.643521625E0,9.237785775E-2,6.428826499E-1,1.005943360E0,1.197394594E0
2.653468625E0,3.345856099E-1,7.057115668E-1,9.697245363E-1,1.245127312E0
2.663415625E0,4.641790584E-1,7.064015383E-1,1.045647123E0,1.344560611E0
2.673361625E0,5.279303370E-1,7.315410572E-1,1.352406017E0,1.625689021E0
2.683308625E0,6.865644206E-1,7.883461726E-1,1.775974810E0,2.060812199E0
2.693254625E0,6.264320934E-1,5.842520338E-1,1.929771785E0,2.111347140E0
2.703201625E0,4.668433422E-1,4.452742428E-1,2.023700434E0,2.124046916E0
2.713148625E0,2.806758530E-1,2.391756785E-1,2.030453821E0,2.063668254E0
2.723095333E0,1.615656582E-1,-5.578594565E-2,1.923070729E0,1.930651849E0
2.733042333E0,1.130236819E-1,-2.906241596E-1,1.832089223E0,1.858436891E0
2.742988333E0,-2.594014898E-2,-5.403271651E-1,1.789222262E0,1.869209095E0
2.752935333E0,-2.449910268E-3,-5.844695503E-1,1.821160631E0,1.912651746E0
2.762882333E0,9.506553043E-2,-6.312554616E-1,1.843360608E0,1.950768886E0
2.772828333E0,2.313234526E-1,-8.546939439E-1,1.665918517E0,1.886609865E0
2.782775333E0,3.321730122E-1,-1.084076121E0,1.524049863E0,1.899549402E0
2.792721333E0,3.085591780E-1,-1.376138111E0,1.488695258E0,2.050653173E0
2.802668333E0,3.961748075E-1,-1.699863358E0,1.346543306E0,2.204465647E0
2.812615333E0,5.288134859E-1,-1.951833329E0,1.187344674E0,2.345012670E0
2.822561333E0,6.206652769E-1,-2.109220494E0,1.064655764E0,2.442852507E0
2.832508333E0,6.307691925E-1,-2.262871873E0,9.645914850E-1,2.539467586E0
2.842454333E0,5.610392455E-1,-2.512284856E0,8.930414459E-1,2.724676726E0
2.852401333E0,4.070065552E-1,-2.846682442E0,8.498191202E-1,2.998574294E0
2.862348333E0,1.952238395E-1,-3.157917452E0,7.657762125E-1,3.255298479E0
2.872294333E0,1.245808132E-1,-3.311867039E0,6.526770285E-1,3.377864853E0
2.882241333E0,7.017367758E-2,-3.388886563E0,4.948858210E-1,3.425549366E0
2.892187333E0,1.083346535E-2,-3.518090149E0,4.685926464E-1,3.549176626E0
2.902134333E0,-5.307444558E-3,-3.615519379E0,5.299816865E-1,3.654160525E0
2.912081333E0,4.676540952E-2,-3.636655310E0,6.008581263E-1,3.686255462E0
2.922027333E0,1.135683135E-1,-3.761965234E0,6.630511585E-1,3.821638003E0
2.931974333E0,2.620491456E-1,-3.926607624E0,6.025397855E-1,3.981202253E0
2.941920333E0,2.686805459E-1,-3.974782249E0,4.726778036E-1,4.011796041E0
2.951867333E0,2.640270394E-1,-3.941868857E0,4.075480074E-1,3.971666620E0
2.961814333E0,3.885381246E-1,-3.906606054E0,5.034932148E-1,3.958034632E0
2.971760333E0,3.316014103E-1,-4.051234009E0,6.232038456E-1,4.112279116E0
2.981707333E0,4.688794523E-2,-4.421773819E0,7.222129941E-1,4.480610873E0
2.991654333E0,-2.419544216E-1,-4.765243360E0,6.216712904E-1,4.811710861E0
3.001600333E0,-4.510729265E-1,-4.868680605E0,2.544825196E-1,4.896149402E0
3.011547333E0,-5.396252800E-1,-4.824807776E0,-2.771024734E-2,4.854969967E0
3.021493333E0,-4.592063669E-1,-4.628971660E0,-2.802742955E-1,4.660129054E0
3.031440333E0,-3.213951319E-1,-4.395267221E0,-3.005702734E-1,4.417240232E0
3.041386333E0,-2.234927883E-1,-4.239119081E0,-1.360088673E-1,4.247184718E0
3.051333333E0,-1.445763173E-1,-4.119137140E0,-1.466890991E-2,4.121699682E0
3.061280333E0,-5.615117736E-2,-3.910616659E0,-1.358395904E-2,3.911043356E0
3.071226333E0,3.383809280E-2,-3.654433184E0,-5.802367508E-2,3.655050432E0
3.081173333E0,1.654944755E-1,-3.464990999E0,-7.896547794E-2,3.469839562E0
3.091120333E0,3.813947274E-1,-3.359839350E0,-6.788383484E-2,3.382098551E0
3.101066333E0,6.443386797E-1,-3.379704680E0,5.021384150E-2,3.440944273E0
3.111013333E0,8.389010529E-1,-3.454663646E0,1.133324879E-1,3.556866618E0
3.120959333E0,8.187037468E-1,-3.522814699E0,-1.589138728E-1,3.620186852E0
3.130906333E0,5.627691443E-1,-3.566409785E0,-7.218677160E-1,3.681994142E0
3.140853333E0,3.785415420E-1,-3.570999849E0,-1.166083905E0,3.775590721E0
3.150799333E0,3.269537510E-1,-3.558755779E0,-1.300290368E0,3.802945765E0
3.160746333E0,4.388669735E-1,-3.412415759E0,-1.228968078E0,3.653429631E0
3.170692333E0,8.320478238E-1,-3.229501405E0,-9.870290056E-1,3.477960489E0
3.180639333E0,1.296833787E0,-3.005834881E0,-6.415567937E-1,3.335928105E0
3.190586333E0,1.500025992E0,-2.838537855E0,-3.942105085E-1,3.234621625E0
3.200532333E0,1.273997924E0,-2.761051138E0,-4.132762322E-1,3.068757296E0
3.210479333E0,8.124537311E-1,-2.778598632E0,-4.289184111E-1,2.926544452E0
3.220425333E0,4.860925954E-1,-2.649132507E0,-4.959810045E-1,2.738646784E0
3.230372333E0,2.010435002E-1,-2.296696846E0,-5.875855315E-1,2.379178776E0
3.240319333E0,2.251529590E-1,-1.875556986E0,-6.091515246E-1,1.984810682E0
3.250265333E0,5.104632786E-1,-1.567091802E0,-5.892528650E-1,1.750305234E0
3.260212333E0,6.875813245E-1,-1.381446798E0,-5.670667747E-1,1.643997585E0
3.270158333E0,8.144377644E-1,-1.305846393E0,-3.271429449E-1,1.573393206E0
3.280105333E0,8.757507907E-1,-1.276384612E0,-3.201175153E-2,1.548264150E0
3.290052333E0,7.865887919E-1,-1.217621264E0,1.157269228E-1,1.454206378E0
3.299998333E0,6.942324592E-1,-1.110955771E0,1.824752283E-1,1.322678586E0
3.309945333E0,5.581210463E-1,-1.052260251E0,3.395217928E-1,1.238557946E0
3.319891333E0,3.429217295E-1,-1.108466027E0,6.977257320E-1,1.353925198E0
3.329838333E0,5.200703636E-2,-1.195790100E0,9.140765119E-1,1.506039363E0
3.339785333E0,-2.366666383E-1,-1.252825010E0,8.668497205E-1,1.541755507E0
3.349731333E0,-5.666709913E-1,-1.353524589E0,7.103329137E-1,1.630250801E0
3.359678333E0,-7.744089686E-1,-1.358310535E0,5.509876625E-1,1.657801003E0
3.369624333E0,-6.493172915E-1,-1.136394668E0,4.710363440E-1,1.391000008E0
3.379571333E0,-4.938393887E-1,-9.169205976E-1,6.189896111E-1,1.211515110E0
3.389518333E0,-3.103228444E-1,-8.651090044E-1,9.038240039E-1,1.289035177E0
3.399464333E0,-1.068833745E-1,-8.668386108E-1,1.129965215E0,1.428164774E0
3.409411333E0,9.645932391E-3,-7.434465730E-1,1.210729297E0,1.420799522E0
3.419357333E0,1.999470010E-2,-5.648036098E-1,1.199109783E0,1.325619545E0
3.429304333E0,-6.068934761E-2,-4.556910574E-1,1.310129478E0,1.388444016E0
3.439251333E0,-1.851684558E-1,-3.995285511E-1,1.426607183E0,1.493023267E0
3.449197333E0,-3.923937786E-1,-3.320949519E-1,1.341362965E0,1.436493835E0
3.459144333E0,-5.265670587E-1,-1.954110235E-1,1.082726583E0,1.219735705E0
3.469090333E0,-4.884144151E-1,-9.944125772E-2,8.860250795E-1,1.016601026E0
3.479037333E0,-4.810831761E-1,-7.501743793E-2,9.985687780E-1,1.110949253E0
3.488984333E0,-4.660542239E-1,-9.241933644E-2,1.181560900E0,1.273512479E0
3.498930333E0,-4.755661820E-1,-1.457091057E-1,1.245735846E0,1.341362045E0
3.508877333E0,-5.294543407E-1,-1.544337362E-1,1.260103624E0,1.375511840E0
3.518823333E0,-6.531380083E-1,-5.049012244E-2,1.228417563E0,1.392173918E0
3.528770333E0,-6.551609257E-1,1.274453276E-1,1.131511073E0,1.313695345E0
3.538717333E0,-5.245853642E-1,2.640719533E-1,1.083608855E0,1.232530710E0
3.548663333E0,-5.034930687E-1,4.050933462E-1,1.221841784E0,1.382209548E0
3.558610333E0,-5.598920218E-1,6.291188890E-1,1.323238789E0,1.568512208E0
3.568556333E0,-6.646401393E-1,9.695560634E-1,1.264581422E0,1.726543266E0
3.578503333E0,-8.082210048E-1,1.190596603E0,1.122750555E0,1.825187736E0
3.588450333E0,-9.660942925E-1,1.328954004E0,9.632631437E-1,1.904555804E0
3.598396333E0,-1.048499907E0,1.481352324E0,8.257215750E-1,1.993883869E0
3.608343333E0,-9.772439826E-1,1.723593698E0,8.307934499E-1,2.148487560E0
3.618289333E0,-7.004455644E-1,1.819716076E0,8.613730721E-1,2.131655262E0
3.628236333E0,-2.189422658E-1,1.917777391E0,1.046693117E0,2.195762355E0
3.638183333E0,2.007334515E-1,1.836318076E0,1.282045301E0,2.248554680E0
3.648129333E0,4.892359489E-1,1.550727199E0,1.442376539E0,2.173604550E0
3.658076333E0,5.875212121E-1,1.159612207E0,1.312575368E0,1.847359127E0
3.668023333E0,4.920588385E-1,9.034673238E-1,8.090584722E-1,1.308797432E0
3.677969333E0,4.122627635E-1,9.947563934E-1,2.785952675E-1,1.112257251E0
3.687916333E0,4.301056883E-1,1.215235015E0,1.643042748E-1,1.299531816E0
3.697862333E0,4.071091738E-1,1.478929238E0,3.990080027E-1,1.584984845E0
3.707809333E0,6.090070984E-1,2.209339444E0,6.904772311E-1,2.393497280E0
3.717756333E0,3.782898559E0,1.235427556E1,1.686378509E0,1.303005443E1
3.727702083E0,5.752246930E0,2.556473785E1,5.789316523E0,2.683580355E1
3.737649083E0,2.280131099E0,2.153278328E1,9.861662489E0,2.379311121E1
3.747595083E0,8.858432311E-1,1.123708315E1,8.195642231E0,1.393647400E1
3.757542083E0,4.356584601E-1,-4.127876973E-1,5.012137363E0,5.047941454E0
3.767489083E0,-9.996747789E-1,-5.558828053E0,-2.235349321E0,6.074265846E0
3.777435083E0,-2.769375234E0,-2.181109672E0,-8.537406138E0,9.236556834E0
3.787382083E0,-3.872181741E0,8.077887493E-1,-9.988503799E0,1.074320819E1
3.797328083E0,-3.326190963E0,1.378861744E0,-6.987858907E0,7.860978192E0
3.807275083E0,-2.479559745E0,8.642313373E-1,-2.840287634E0,3.868119204E0
3.817222083E0,-1.675827793E0,4.569242352E-1,1.004054636E-2,1.737031768E0
3.827168083E0,-4.930190974E-1,1.455863142E0,2.135166344E0,2.630882102E0
3.837115083E0,4.471520761E-1,3.658874145E0,3.308136807E0,4.952885434E0
3.847061083E0,6.706004986E-1,5.578736653E0,4.523362467E0,7.213377550E0
3.857008083E0,5.703510095E-1,6.656293713E0,5.746796740E0,8.812333348E0
3.866955083E0,1.060026669E0,6.438503641E0,6.048532364E0,8.897343954E0
3.876901083E0,1.724180905E0,4.904573738E0,5.261172616E0,7.396457304E0
3.886848083E0,9.818301000E-1,4.051225238E0,3.966435057E0,5.754044085E0
3.896794083E0,1.530533548E-1,3.304842778E0,2.355285362E0,4.061130416E0
3.906741083E0,-8.750710884E-2,2.434539108E0,7.108118007E-1,2.537694146E0
3.916688083E0,-3.022734211E-1,1.731465805E0,-3.214641291E-1,1.786807835E0
3.926634083E0,-5.023865927E-1,1.323180463E0,-7.677321061E-1,1.610158816E0
3.936581083E0,-6.187067521E-1,1.211629622E0,-7.027962913E-1,1.531263208E0
3.946527083E0,-5.233892432E-1,1.279919838E0,-1.936317158E-1,1.396289488E0
3.956474083E0,-4.385233399E-1,1.418508790E0,5.771698862E-1,1.592983045E0
3.966421083E0,-4.427502556E-1,1.569635341E0,1.319117672E0,2.097582972E0
3.976367083E0,-4.375255857E-1,1.630540524E0,1.945041496E0,2.575514989E0
3.986314083E0,-4.098281291E-1,1.709290239E0,2.335162754E0,2.922775617E0
3.996260083E0,-4.947350360E-1,1.758441934E0,2.437478064E0,3.046010523E0
4.006207083E0,-6.967884234E-1,1.651875259E0,2.335479527E0,2.944260620E0
4.016154083E0,-8.970155060E-1,1.517814392E0,2.091426101E0,2.735408650E0
4.026100083E0,-1.049124535E0,1.315447521E0,1.701881232E0,2.393212109E0
4.036047083E0,-1.171377463E0,1.165544207E0,1.325929970E0,2.118657298E0
4.045993083E0,-1.157435435E0,1.172186059E0,9.722843742E-1,1.912854895E0
4.055940083E0,-1.113399761E0,1.155223287E0,7.257481476E-1,1.760940159E0
4.065887083E0,-9.440306282E-1,1.136254334E0,6.904105729E-1,1.630623960E0
4.075833083E0,-7.356276762E-1,1.104534944E0,7.273760124E-1,1.513347740E0
4.085780083E0,-4.806146314E-1,1.217240025E0,7.840758779E-1,1.525594535E0
4.095727083E0,-1.800836806E-1,1.329227069E0,8.456330985E-1,1.585676534E0
4.105673083E0,8.749046255E-2,1.303278880E0,9.518618041E-1,1.616239869E0
4.115620083E0,2.322336083E-1,1.199566231E0,1.133541811E0,1.666675922E0
4.125566083E0,4.368928804E-1,1.125163921E0,1.207181060E0,1.707089731E0
4.135513083E0,5.741231945E-1,9.967684203E-1,1.301914140E0,1.737280966E0
4.145460083E0,5.996465467E-1,7.987243956E-1,1.360758179E0,1.687957187E0
4.155406083E0,6.117310603E-1,5.151192337E-1,1.416700830E0,1.626838639E0
4.165353083E0,5.224162300E-1,8.186452746E-2,1.579586717E0,1.665747494E0
4.175299083E0,3.747845963E-1,-1.963845849E-1,1.576610484E0,1.632400385E0
4.185246083E0,2.575534773E-1,-3.729283977E-1,1.346324912E0,1.420563322E0
4.195193083E0,9.129524577E-2,-5.566607773E-1,1.154380776E0,1.284835016E0
4.205139083E0,-9.884451281E-2,-8.276324451E-1,1.108574858E0,1.386969328E0
4.215086083E0,-1.851114455E-1,-1.186966651E0,1.059722468E0,1.601926274E0
4.225032083E0,-2.036006703E-1,-1.472932334E0,9.777010886E-1,1.779573632E0
4.234979083E0,-1.895617613E-1,-1.598242258E0,9.794764495E-1,1.884061064E0
4.244926083E0,-2.440478709E-1,-1.714911168E0,1.016541950E0,2.008441488E0
4.254872083E0,-3.251923138E-1,-1.930026138E0,9.750128312E-1,2.186641479E0
4.264819083E0,-3.677755023E-1,-2.133419196E0,8.958253053E-1,2.342912560E0
4.274765083E0,-3.013842058E-1,-2.308421683E0,7.521273494E-1,2.446495178E0
4.284712083E0,-1.791701079E-1,-2.595138148E0,5.545345835E-1,2.659765505E0
4.294659083E0,-4.866199046E-2,-2.903689286E0,4.151371086E-1,2.933618632E0
4.304605083E0,9.569057951E-2,-3.160769724E0,3.200242522E-1,3.178370251E0
4.314552083E0,1.116786030E-1,-3.434962623E0,3.628922367E-1,3.455883549E0
4.324498083E0,1.012417981E-2,-3.714935494E0,3.285717121E-1,3.729451380E0
4.334445083E0,-7.118021180E-2,-3.895309818E0,1.648490891E-1,3.899446169E0
4.344392083E0,-1.145095325E-1,-4.062703907E0,-4.896107554E-2,4.064612240E0
4.354338083E0,-1.036404448E-1,-4.296092012E0,-1.249938825E-1,4.299159381E0
4.364285083E0,-1.432830046E-2,-4.455134524E0,-1.925836024E-1,4.459318038E0
4.374232083E0,1.490516666E-1,-4.497674187E0,-2.385397938E-1,4.506460998E0
4.384178083E0,2.055810857E-1,-4.553603974E0,-1.616652802E-1,4.561108242E0
4.394125083E0,1.629124913E-1,-4.670621377E0,-1.802988946E-3,4.673462076E0
4.404071083E0,1.704647550E-1,-4.837583942E0,1.360383958E-1,4.842497607E0
4.414018083E0,8.730156094E-2,-5.015243989E0,1.095496318E-1,5.017199911E0
4.423965083E0,-3.636618673E-2,-5.121374461E0,2.504420936E-2,5.121564808E0
4.433911083E0,-1.757360199E-1,-5.144699589E0,-1.479029810E-1,5.149824492E0
4.443858083E0,-3.385841918E-1,-5.077539639E0,-4.265804020E-1,5.106664164E0
4.453804083E0,-4.037590116E-1,-4.922504809E0,-7.869182825E-1,5.001331355E0
4.463751083E0,-4.126508725E-1,-4.668091872E0,-8.692456171E-1,4.766230209E0
4.473698083E0,-4.520149130E-1,-4.392928920E0,-8.515004870E-1,4.497465403E0
4.483644083E0,-3.352992260E-1,-4.070858434E0,-8.385658613E-1,4.169832930E0
4.493591083E0,-1.584148130E-1,-3.672314554E0,-8.075025281E-1,3.763382757E0
4.503537083E0,4.997819414E-2,-3.231879467E0,-7.435129389E-1,3.316678188E0
4.513484083E0,2.980530288E-1,-2.805879402E0,-7.205564779E-1,2.912215044E0
4.523431083E0,5.263420871E-1,-2.355462533E0,-7.638916549E-1,2.531554897E0
4.533377083E0,8.726905042E-1,-1.945850458E0,-7.154042038E-1,2.249383448E0
4.543324083E0,1.184303244E0,-1.615743560E0,-5.909026569E-1,2.088628108E0
4.553270083E0,1.349781494E0,-1.363874745E0,-5.759997122E-1,2.003457030E0
4.563217083E0,1.359247259E0,-1.126583624E0,-4.725485802E-1,1.827579255E0
4.573164083E0,1.289091781E0,-1.039489347E0,-4.010418105E-1,1.703857464E0
4.583110083E0,1.339340413E0,-9.760084659E-1,-4.233862142E-1,1.710462263E0
4.593057083E0,1.303862432E0,-8.773653531E-1,-3.386543584E-1,1.607642367E0
4.603003083E0,1.096723356E0,-9.189618605E-1,-1.883706835E-1,1.443182779E0
4.612950083E0,8.697405839E-1,-1.138479200E0,-1.511063781E-1,1.440630664E0
4.622897083E0,7.191589934E-1,-1.417391971E0,-1.818522075E-1,1.599768697E0
4.632843083E0,4.855437246E-1,-1.632837895E0,-2.297042124E-1,1.718917195E0
4.642790083E0,3.192129511E-1,-1.714810596E0,-2.693483345E-1,1.764942155E0
4.652737083E0,3.456561068E-1,-1.746752765E0,-1.514747527E-1,1.787055670E0
4.662683083E0,4.315195450E-1,-1.711264259E0,1.008717790E-1,1.767713098E0
4.672630083E0,5.006447437E-1,-1.669023389E0,3.860074496E-1,1.784736950E0
4.682576083E0,5.908079320E-1,-1.701454386E0,5.431430380E-1,1.881224441E0
4.692523083E0,5.390504256E-1,-1.762869446E0,5.123366900E-1,1.913314644E0
4.702470083E0,2.681790558E-1,-1.884395637E0,3.809123321E-1,1.941123676E0
4.712416083E0,2.760909051E-2,-2.076554439E0,3.278837872E-1,2.102462456E0
4.722363083E0,-1.917716434E-1,-2.279820027E0,2.728723052E-1,2.304086590E0
4.732309375E0,-3.705122916E-1,-2.427530050E0,1.486714514E-1,2.460139163E0
4.742256375E0,-4.640376654E-1,-2.428123543E0,-9.439744949E-2,2.473868584E0
4.752203375E0,-4.627260619E-1,-2.366954066E0,-2.931301300E-1,2.429508640E0
4.762149375E0,-4.894291994E-1,-2.292165838E0,-3.806233335E-1,2.374539807E0
4.772096375E0,-5.544134000E-1,-2.180514425E0,-3.833937442E-1,2.282325161E0
4.782042375E0,-6.711565688E-1,-2.027918469E0,-4.355765625E-1,2.180053072E0
4.791989375E0,-6.596974149E-1,-1.884941182E0,-4.514434938E-1,2.047438685E0
4.801936375E0,-4.052070746E-1,-1.696216450E0,-3.339800942E-1,1.775636709E0
4.811882375E0,-1.502649638E-1,-1.486178616E0,-2.222713780E-1,1.510202306E0
4.821829375E0,1.528725296E-1,-1.247321026E0,-1.850749004E-1,1.270209617E0
4.831776375E0,4.692496176E-1,-9.614313573E-1,-1.099697177E-1,1.075471430E0
4.841722375E0,6.253396142E-1,-7.869884491E-1,7.815742929E-2,1.008220728E0
4.851669375E0,6.784647113E-1,-7.530073553E-1,2.925713007E-1,1.054956116E0
4.861615375E0,7.174719986E-1,-8.433760732E-1,5.497458601E-1,1.236232090E0
4.871562375E0,5.805633178E-1,-9.551760060E-1,6.661025280E-1,1.301194661E0
4.881509375E0,4.028731585E-1,-8.964249372E-1,6.376441294E-1,1.171526562E0
4.891455375E0,1.713488540E-1,-7.534704548E-1,4.583199656E-1,8.984071165E-1
4.901402375E0,5.508632630E-2,-6.399444240E-1,2.821585608E-1,7.015531502E-1
4.911348375E0,-4.528288454E-2,-5.955079240E-1,2.868790179E-1,6.625555057E-1
4.921295375E0,-2.539291538E-1,-6.049447453E-1,3.954944839E-1,7.660639966E-1
4.931242375E0,-4.799537864E-1,-6.375967669E-1,4.798733872E-1,9.312162703E-1
4.941188375E0,-5.801650494E-1,-5.898314470E-1,4.865356316E-1,9.597966145E-1
4.951135375E0,-6.697819615E-1,-4.414665359E-1,4.254801752E-1,9.080385222E-1
4.961081375E0,-6.299789413E-1,-3.149760586E-1,3.481673397E-1,7.856868845E-1
4.971028375E0,-4.427491958E-1,-1.712731326E-1,2.539903302E-1,5.383980165E-1
4.980975375E0,-2.481708158E-1,5.914634049E-2,2.969966014E-1,3.915278082E-1
4.990921375E0,-1.131849919E-1,2.301119095E-1,4.174806726E-1,4.899514724E-1
5.000868375E0,6.856050387E-2,3.981971401E-1,5.805758893E-1,7.073399949E-1
5.010814375E0,6.135863453E-2,6.427089876E-1,7.333244580E-1,9.770386305E-1
5.020761375E0,-4.619665816E-4,9.777117598E-1,8.774830283E-1,1.313733978E0
5.030708375E0,9.441440642E-2,1.121578993E0,1.033622836E0,1.528145832E0
5.040654375E0,1.567869481E-1,1.086109782E0,1.242556130E0,1.657758228E0
5.050601375E0,1.828991332E-1,9.822760963E-1,1.403305006E0,1.722667513E0
5.060548375E0,2.332831469E-1,9.040052676E-1,1.324267461E0,1.620287276E0
5.070494375E0,4.457996151E-1,1.150247306E0,8.436409521E-1,1.494501997E0
5.080441375E0,5.746731251E-1,1.469317585E0,3.683956361E-1,1.620141572E0
5.090387375E0,5.774104992E-1,1.518321930E0,3.005156019E-1,1.651972759E0
5.100334375E0,5.258725557E-1,1.427690672E0,5.218467477E-1,1.608467167E0
5.110281375E0,4.121994674E-1,1.343201914E0,7.395667993E-1,1.587784253E0
5.120227375E0,2.509620573E-1,1.267869312E0,9.529739445E-1,1.605812531E0
5.130174375E0,2.488311857E-2,1.385449802E0,9.468396306E-1,1.678271613E0
5.140120375E0,-3.819884116E-2,1.769531763E0,9.918529585E-1,2.028909585E0
5.150067375E0,6.800634314E-2,2.019736460E0,1.265376351E0,2.384352646E0
5.160014375E0,1.824405836E-1,2.045233828E0,1.582313274E0,2.592292668E0
5.169960375E0,5.793699011E-2,1.786185803E0,1.691260934E0,2.460524327E0
5.179907375E0,-4.380700345E-1,1.400560176E0,1.556325908E0,2.139070942E0
5.189853375E0,-9.381701101E-1,9.157219183E-1,1.338260140E0,1.873405986E0
5.199800375E0,-1.310202568E0,7.220299762E-1,1.021632535E0,1.811543843E0
5.209747375E0,-1.324509097E0,1.390357370E0,4.803481811E-1,1.979432327E0
5.219693375E0,8.451103574E-1,8.241518315E0,3.152266118E-1,8.290729972E0
5.229640375E0,3.194113471E0,1.815744297E1,2.582783566E0,1.861627962E1
5.239587375E0,1.726705294E0,1.657737327E1,6.862240834E0,1.802446018E1
5.249533375E0,4.775688533E-1,8.721137348E0,7.181479513E0,1.130751771E1
5.259480375E0,6.958204168E-1,-1.329879034E-1,6.055019265E0,6.096319392E0
5.269426375E0,-4.373017104E-1,-3.730254030E0,2.094802722E0,4.300491409E0
5.279373375E0,-2.504752766E0,-1.304396283E0,-3.318406272E0,4.357413943E0
5.289320375E0,-3.372785085E0,9.490405226E-1,-5.753633305E0,6.736516411E0
5.299266375E0,-2.815040819E0,1.182395298E0,-5.103910582E0,5.947471453E0
5.309213375E0,-2.444193592E0,9.032392824E-1,-2.794072119E0,3.820570968E0
5.319159375E0,-1.988031687E0,5.656549644E-1,-6.237999693E-1,2.159018742E0
5.329106375E0,-1.219877997E0,1.297926339E0,5.653164107E-1,1.868769047E0
5.339053375E0,-3.210956083E-1,2.889233215E0,1.294367139E0,3.182162354E0
5.348999375E0,4.554508831E-1,4.111811163E0,2.292955213E0,4.729912278E0
5.358946375E0,8.250434442E-1,4.565149886E0,3.522084382E0,5.824634629E0
5.368892375E0,1.279063075E0,4.169366477E0,4.572543983E0,6.318843062E0
5.378839375E0,1.347274646E0,3.490567889E0,4.560327980E0,5.898796864E0
5.388786375E0,9.063790910E-1,3.012337570E0,3.780335432E0,4.917991121E0
5.398732375E0,4.334763157E-1,2.357309083E0,2.523401875E0,3.480282295E0
5.408679375E0,-6.091015309E-2,1.819744143E0,8.736658198E-1,2.019522408E0
5.418626375E0,-5.008683997E-1,1.557953773E0,-3.498649326E-1,1.673467832E0
5.428572375E0,-6.605508891E-1,1.504402049E0,-9.809063861E-1,1.913564825E0
5.438519375E0,-6.350087893E-1,1.587187513E0,-1.087762498E0,2.026234837E0
5.448465375E0,-4.407487902E-1,1.651674115E0,-5.568557820E-1,1.797880764E0
5.458412375E0,-2.575090384E-1,1.616763314E0,2.211259085E-1,1.652008228E0
5.468359375E0,-1.610755885E-1,1.654466161E0,8.940354726E-1,1.887459416E0
5.478305375E0,-1.722920099E-1,1.791061796E0,1.279866921E0,2.208086554E0
5.488252375E0,-2.199760535E-1,1.877652628E0,1.273257959E0,2.279288197E0
5.498198375E0,-1.812288943E-1,2.003101716E0,1.140570164E0,2.312176615E0
5.508145375E0,-6.616855413E-2,2.059730830E0,1.107118536E0,2.339354788E0
5.518092375E0,1.415610909E-2,2.001289079E0,1.065166810E0,2.267143292E0
5.528038375E0,5.931444794E-2,1.856036056E0,1.043315034E0,2.129998664E0
5.537985375E0,1.670526123E-1,1.684829582E0,9.458768865E-1,1.939391755E0
5.547931375E0,2.322952598E-1,1.484129167E0,7.456506810E-1,1.677079429E0
5.557878375E0,2.425270101E-1,1.323675138E0,6.415797441E-1,1.490825204E0
5.567825375E0,2.065292117E-1,1.211965837E0,6.189049727E-1,1.376429755E0
5.577771375E0,1.553564268E-1,1.062957147E0,6.577198134E-1,1.259606633E0
5.587718375E0,8.405430973E-2,9.498942161E-1,7.423728780E-1,1.208503884E0
5.597665375E0,1.323689756E-1,8.236715412E-1,7.537790416E-1,1.124339449E0
5.607611375E0,2.012956613E-1,6.373470908E-1,8.125242631E-1,1.052105953E0
5.617558375E0,1.994102266E-1,5.009011441E-1,8.431784374E-1,1.000807810E0
5.627504375E0,2.504064256E-1,3.796193665E-1,8.025133914E-1,9.224109631E-1
5.637451375E0,2.138929027E-1,3.176786417E-1,7.947482159E-1,8.822100770E-1
5.647398375E0,2.532657140E-1,2.392423368E-1,8.411756929E-1,9.104707375E-1
5.657344375E0,2.185300371E-1,1.383924848E-1,9.978916705E-1,1.030871303E0
5.667291375E0,1.639860401E-1,-1.960922241E-2,1.075828623E0,1.088431518E0
5.677237375E0,4.508378685E-2,-2.444095212E-1,1.071964198E0,1.100398021E0
5.687184375E0,-8.640129073E-3,-4.643057603E-1,1.106461601E0,1.199963235E0
5.697131375E0,-6.138143867E-2,-6.587981862E-1,9.596690065E-1,1.165653179E0
5.707077375E0,-3.419540335E-2,-7.244682652E-1,8.127851951E-1,1.089331614E0
5.717024375E0,-4.981243014E-2,-6.820882308E-1,8.045125544E-1,1.055919544E0
5.726971083E0,1.651283850E-2,-6.386399102E-1,6.978464770E-1,9.461095678E-1
5.736917083E0,1.681687544E-2,-6.784389836E-1,7.211745286E-1,9.902802444E-1
5.746864083E0,-1.291035980E-1,-8.040132022E-1,8.161438358E-1,1.152907511E0
5.756810083E0,-3.473465368E-1,-8.922020781E-1,7.901400983E-1,1.241368414E0
5.766757083E0,-4.446392351E-1,-9.305966502E-1,6.081807041E-1,1.197329505E0
5.776704083E0,-4.794216898E-1,-9.685205215E-1,5.008128512E-1,1.191088019E0
5.786650083E0,-4.231045246E-1,-1.015049740E0,5.667964140E-1,1.237174842E0
5.796597083E0,-3.485346910E-1,-1.099148489E0,7.294530896E-1,1.364443345E0
5.806543083E0,-2.082950708E-1,-1.181379052E0,7.811844297E-1,1.431534985E0
5.816490083E0,-6.758036435E-2,-1.145537374E0,7.191794586E-1,1.354268096E0
5.826437083E0,-1.131559020E-1,-1.075997023E0,6.572937707E-1,1.265941923E0
5.836383083E0,-3.101073745E-1,-1.096114953E0,5.142720453E-1,1.249844115E0
5.846330083E0,-5.419699404E-1,-1.195328169E0,3.175692987E-1,1.350330000E0
5.856277083E0,-6.671287143E-1,-1.292141688E0,9.687769219E-2,1.457421062E0
5.866223083E0,-5.860374811E-1,-1.311141046E0,-1.322910614E-1,1.442231499E0
5.876170083E0,-4.976041916E-1,-1.248729036E0,-1.408782823E-1,1.351584562E0
5.886116083E0,-3.190624218E-1,-1.320549216E0,5.168733984E-2,1.359530302E0
5.896063083E0,-1.447972507E-1,-1.436436353E0,1.775742383E-1,1.454595562E0
5.906010083E0,5.617303133E-2,-1.268483854E0,3.442840576E-1,1.315575239E0
5.915956083E0,1.949448542E-1,-1.021529624E0,4.554349494E-1,1.135318133E0
5.925903083E0,3.429450452E-1,-9.179298270E-1,3.866506433E-1,1.053425456E0
5.935849083E0,4.435584139E-1,-7.934396821E-1,2.771344869E-1,9.503126430E-1
5.945796083E0,4.373756777E-1,-7.119873834E-1,2.169796479E-1,8.633097272E-1
5.955743083E0,3.979608760E-1,-7.220141888E-1,1.921561709E-1,8.465230899E-1
5.965689083E0,3.025292734E-1,-7.995278031E-1,1.311558245E-1,8.648528889E-1
5.975636083E0,2.568681836E-1,-9.780976760E-1,7.977824092E-2,1.014406672E0
5.985582083E0,3.285517585E-1,-1.179662894E0,5.067811042E-2,1.225609674E0
5.995529083E0,4.581482767E-1,-1.246284900E0,3.713595897E-2,1.328346707E0
6.005476083E0,5.255553077E-1,-1.165060642E0,1.409472795E-1,1.285861897E0
6.015422083E0,3.431445815E-1,-1.146752425E0,2.647338581E-1,1.225917348E0
6.025369083E0,2.067499806E-1,-1.229462460E0,2.394700858E-1,1.269515426E0
6.035316083E0,8.139093954E-2,-1.248345459E0,2.361395118E-1,1.273087875E0
6.045262083E0,2.472579192E-2,-1.322996861E0,2.506774440E-1,1.346763245E0
6.055209083E0,1.031161231E-1,-1.419796346E0,1.619243118E-1,1.432715632E0
6.065155083E0,1.604144146E-1,-1.558264845E0,1.378293979E-1,1.572551765E0
6.075102083E0,-3.759222452E-2,-1.790098175E0,1.913562718E-1,1.800689277E0
6.085049083E0,-2.041636475E-1,-2.038755113E0,2.440200967E-1,2.063431854E0
6.094995083E0,-1.791006905E-1,-2.227043059E0,2.178371421E-1,2.244827580E0
6.104942083E0,-1.884851062E-1,-2.364071388E0,9.805254400E-2,2.373599475E0
6.114888083E0,-1.850647774E-1,-2.446352237E0,1.041944593E-2,2.453364385E0
6.124835083E0,-2.135246378E-1,-2.598558185E0,-3.606124073E-2,2.607565497E0
6.134782083E0,-3.048233919E-1,-2.833682912E0,-6.869893670E-2,2.850858764E0
6.144728083E0,-3.791158116E-1,-2.981052627E0,-4.427482456E-2,3.005389130E0
6.154675083E0,-4.855105416E-1,-3.029318469E0,-1.063012111E-1,3.069819346E0
6.164622083E0,-4.950946032E-1,-3.013480700E0,-1.833426628E-1,3.059378880E0
6.174568083E0,-3.875865268E-1,-3.029993822E0,-2.276774213E-1,3.063155707E0
6.184515083E0,-2.729361130E-1,-3.019441352E0,-7.918562561E-2,3.032785941E0
6.194461083E0,-1.326409807E-1,-3.028096985E0,1.125910610E-1,3.033091118E0
6.204408083E0,-1.044754180E-1,-3.093999783E0,1.413061523E-1,3.098986480E0
6.214355083E0,-1.391877792E-1,-3.120214021E0,5.542254120E-2,3.123808642E0
6.224301083E0,-1.043794141E-1,-3.066755267E0,2.553625256E-2,3.068637324E0
6.234248083E0,-9.984577540E-2,-3.053200251E0,-6.149955243E-2,3.055451382E0
6.244194083E0,-3.367338404E-3,-3.028367127E0,-2.330814180E-1,3.037325425E0
6.254141083E0,1.568797727E-1,-3.060798123E0,-4.393621230E-1,3.096148493E0
6.264088083E0,1.874574215E-1,-3.134844339E0,-4.548856035E-1,3.173217646E0
6.274034083E0,1.518373532E-1,-3.220423602E0,-4.404236850E-1,3.253944650E0
6.283981083E0,5.150461435E-2,-3.266707238E0,-4.150575864E-1,3.293372391E0
6.293928083E0,2.134577237E-2,-3.252556976E0,-3.637497309E-1,3.272903358E0
6.303874083E0,-2.403885372E-2,-3.265620825E0,-4.980707994E-1,3.303472682E0
6.313821083E0,5.121152267E-2,-3.290536981E0,-6.704920328E-1,3.358543703E0
6.323767083E0,1.583747230E-1,-3.296471320E0,-7.689807791E-1,3.388677788E0
6.333714083E0,-3.565738086E-2,-3.350148175E0,-8.220809524E-1,3.449721921E0
6.343661083E0,-3.995135311E-1,-3.389987594E0,-9.085891923E-1,3.532302545E0
6.353607083E0,-6.793610895E-1,-3.355284369E0,-1.023923767E0,3.573217677E0
6.363554083E0,-5.740494100E-1,-3.078466655E0,-9.803861301E-1,3.281409245E0
6.373501083E0,-2.378406130E-1,-2.664242882E0,-6.357303357E-1,2.749347441E0
6.383447083E0,1.924681929E-1,-2.284317121E0,-1.272694726E-1,2.295941252E0
6.393394083E0,7.423619145E-1,-2.014524252E0,4.202138074E-1,2.187690293E0
6.403340083E0,1.051460571E0,-1.847722485E0,6.849244228E-1,2.233555278E0
6.413287083E0,9.597477977E-1,-1.836795208E0,7.073224747E-1,2.189803086E0
6.423234083E0,5.835215339E-1,-1.926511377E0,5.298070009E-1,2.081499201E0
6.433180083E0,3.004844290E-1,-1.915808634E0,1.264286430E-1,1.943347065E0
6.443127083E0,1.101881112E-1,-1.714994198E0,-2.587497445E-1,1.737900443E0
6.453073083E0,1.387266532E-2,-1.637395214E0,-4.408157408E-1,1.695751767E0
6.463020083E0,1.987900563E-1,-1.550383383E0,-3.466602199E-1,1.601055723E0
6.472967083E0,4.201892491E-1,-1.410447818E0,-1.723583758E-1,1.481765657E0
6.482913083E0,5.902194829E-1,-1.242890006E0,-2.211041276E-1,1.393564366E0
6.492860083E0,6.145735015E-1,-1.127058418E0,-3.889520343E-1,1.341359367E0
6.502806083E0,6.008699669E-1,-1.116342811E0,-3.264336777E-1,1.309131366E0
6.512753083E0,7.037574273E-1,-9.708173078E-1,1.278832841E-1,1.205866865E0
6.522700083E0,8.219624001E-1,-7.265943128E-1,4.538667627E-1,1.187247456E0
6.532646083E0,8.036899973E-1,-5.475467223E-1,5.301027238E-1,1.107580211E0
6.542593083E0,7.369963633E-1,-4.265374249E-1,5.689036775E-1,1.024084571E0
6.552540083E0,4.750777933E-1,-4.456999201E-1,6.282061386E-1,9.049808180E-1
6.562486083E0,2.270064533E-2,-5.687247527E-1,6.578977150E-1,8.699382547E-1
6.572433083E0,-2.776066495E-1,-5.781703448E-1,7.165727699E-1,9.616771465E-1
6.582379083E0,-4.589064413E-1,-3.706988543E-1,5.946893138E-1,8.376563391E-1
6.592326083E0,-5.128563613E-1,-1.145294130E-2,3.749556273E-1,6.354089546E-1
6.602273083E0,-3.602459331E-1,2.689578867E-1,3.829353225E-1,5.905547717E-1
6.612219083E0,-1.578181229E-1,3.438326526E-1,5.988793920E-1,7.083671216E-1
6.622166083E0,-5.831179664E-2,2.672452372E-1,9.970028937E-1,1.033844791E0
6.632113083E0,-1.620528409E-1,1.551009035E-1,1.411652929E0,1.429363987E0
6.642059083E0,-4.604992229E-1,4.160878658E-2,1.509331251E0,1.578566328E0
6.652006083E0,-6.784470235E-1,1.938007003E-1,1.240558137E0,1.427176781E0
6.661952083E0,-7.160285403E-1,4.818111545E-1,9.385189696E-1,1.275012437E0
6.671899083E0,-6.214623986E-1,6.365530390E-1,6.636974220E-1,1.109914209E0
6.681846083E0,-2.892494974E-1,6.002704811E-1,6.866361221E-1,9.567962617E-1
6.691792083E0,-1.243347551E-1,5.300454211E-1,8.839516568E-1,1.038160783E0
6.701739083E0,-2.140829555E-1,3.760332692E-1,1.038016288E0,1.124593413E0
6.711685083E0,-5.297384423E-1,1.214396524E-1,1.120147009E0,1.245030011E0
6.721632083E0,-8.477155843E-1,4.853539824E-2,9.760173829E-1,1.293672033E0
6.731579000E0,-1.079987017E0,2.465805924E-1,5.811204113E-1,1.250949590E0
6.741525000E0,-9.327283989E-1,5.962195301E-1,2.144950198E-1,1.127593946E0
6.751472000E0,-6.506459981E-1,8.017684561E-1,2.148693877E-1,1.054676124E0
6.761419000E0,-2.888128383E-1,8.571743327E-1,7.390576530E-1,1.168061174E0
6.771365000E0,-5.876641765E-2,6.894352573E-1,1.303070719E0,1.475387327E0
6.781312000E0,-1.861357132E-1,2.988096768E-1,1.476141578E0,1.517540011E0
6.791258000E0,-5.088217825E-1,-1.682203013E-1,1.227149009E0,1.339063989E0
6.801205000E0,-8.592676359E-1,-3.583553821E-1,6.871156669E-1,1.157103016E0
6.811152000E0,-1.102747888E0,-2.667885697E-1,-4.524414673E-2,1.135462936E0
6.821098000E0,-6.978912082E-1,4.383657575E-3,-4.280239333E-1,8.187037575E-1
6.831045000E0,-4.019625460E-2,4.425862777E-1,-5.043162104E-1,6.721853853E-1
6.840991000E0,5.297852200E-1,1.019863168E0,-3.299537015E-1,1.195685036E0
6.850938000E0,7.167344454E-1,1.085716265E0,4.585506383E-1,1.379404495E0
6.860885000E0,4.760427301E-1,6.723970556E-1,1.181602708E0,1.440458066E0
6.870831000E0,-2.666154921E-2,2.479897714E-1,1.486798421E0,1.507573982E0
6.880778000E0,-7.592555438E-1,6.396503091E-2,1.043651103E0,1.292195082E0
6.890725000E0,-1.281533085E0,2.214007276E-1,1.245708364E-1,1.306469756E0
6.900671000E0,-1.479726068E0,4.875028342E-1,-4.044197470E-1,1.609597335E0
6.910618000E0,-1.381957844E0,6.871747237E-1,7.132375181E-2,1.545025457E0
6.920564000E0,-1.120506613E0,7.697204518E-1,1.074315948E0,1.732674061E0
6.930511000E0,-9.886954620E-1,9.902879512E-1,1.516036838E0,2.063142418E0
6.940458000E0,-8.440059645E-1,1.048664798E0,1.451438846E0,1.979575372E0
6.950404000E0,-6.876843086E-1,1.049713789E0,1.155497229E0,1.705867109E0
6.960351000E0,-5.498364919E-1,1.530732061E0,6.493993717E-1,1.751336733E0
6.970298000E0,-3.871472547E-1,2.231813802E0,2.408365801E-1,2.277910907E0
6.980244000E0,1.660626787E-1,3.343811547E0,3.742317420E-1,3.368783441E0
6.990191000E0,3.083789960E0,1.055487329E1,1.230683359E0,1.106479518E1
7.000137000E0,5.165937846E0,1.825982420E1,3.099669244E0,1.922800154E1
7.010084000E0,4.262572556E0,1.592998943E1,5.758691146E0,1.746701497E1
7.020031000E0,2.658912560E0,7.553001071E0,6.744281445E0,1.046914387E1
7.029977000E0,8.171185666E-1,4.816556185E-1,5.597315596E0,5.677113418E0
7.039924000E0,-1.107551084E0,-3.602107036E-1,6.121327275E-1,1.315723235E0
7.049870000E0,-1.570225178E0,2.409007241E0,-3.812454772E0,4.775325579E0
7.059817000E0,-1.504568256E0,3.299802479E0,-3.959455528E0,5.369330508E0
7.069764000E0,-9.670345978E-1,3.310670698E0,-1.144302442E0,3.633885588E0
7.079710000E0,-3.691175114E-1,3.374288989E0,2.044821892E0,3.962747846E0
7.089657000E0,4.457297043E-1,4.332093903E0,3.764656415E0,5.756591916E0
7.099604000E0,9.581151089E-1,5.405376649E0,3.805162125E0,6.679471541E0
7.109550000E0,1.112499436E0,5.922310274E0,3.201730054E0,6.823671249E0
7.119497000E0,1.256610644E0,5.169394720E0,3.021893674E0,6.118296614E0
7.129443000E0,8.407802019E-1,3.721881986E0,3.224308200E0,4.995546040E0
7.139390000E0,1.324398731E-1,2.561678626E0,2.773220948E0,3.777630491E0
7.149337000E0,-2.735263163E-1,1.905611674E0,1.328946987E0,2.339288908E0
7.159283000E0,-4.837405895E-1,1.494767007E0,-3.130950093E-2,1.571404991E0
7.169230000E0,-3.833868738E-1,1.192932565E0,-5.825116101E-1,1.381808010E0
7.179177000E0,-2.195388280E-1,9.449199897E-1,-6.006178057E-1,1.140970128E0
7.189123000E0,-7.341033071E-2,8.353250420E-1,-3.708573139E-1,9.168926599E-1
7.199070000E0,-1.143896828E-1,8.894965714E-1,2.050732550E-1,9.199696680E-1
7.209016000E0,-2.345768251E-1,1.045706107E0,7.588636342E-1,1.313164713E0
7.218963000E0,-2.876304217E-1,1.151532524E0,1.180804855E0,1.674233711E0
7.228910000E0,-4.235997838E-1,1.184124320E0,1.463732325E0,1.929792605E0
7.238856000E0,-4.601492670E-1,1.292006618E0,1.651965599E0,2.147093102E0
7.248803000E0,-4.775795245E-1,1.232478454E0,1.761782741E0,2.202490356E0
7.258749000E0,-5.558409977E-1,9.270894903E-1,1.639032289E0,1.963385082E0
7.268696000E0,-6.573726350E-1,5.184790438E-1,1.472287386E0,1.693691072E0
7.278643000E0,-7.133813596E-1,1.717748237E-1,1.269972409E0,1.466713835E0
7.288589000E0,-7.178778684E-1,-5.090702891E-2,1.057582971E0,1.279227072E0
7.298536000E0,-6.097371233E-1,-1.650569576E-1,7.859808277E-1,1.008359569E0
7.308483000E0,-4.395387089E-1,-2.188057333E-1,6.072168271E-1,7.808857155E-1
7.318429000E0,-3.307144243E-1,-3.272780156E-1,6.095242846E-1,7.668133954E-1
7.328376000E0,-2.169784784E-1,-4.079625750E-1,6.504775983E-1,7.978936198E-1
7.338322000E0,-7.798460752E-2,-4.949048245E-1,6.796312308E-1,8.443405677E-1
7.348269000E0,1.763783365E-2,-5.224212366E-1,7.228345531E-1,8.920340985E-1
7.358216000E0,7.546591938E-2,-6.142798251E-1,7.181287140E-1,9.480209166E-1
7.368162000E0,7.358223885E-2,-7.705940259E-1,7.430180452E-1,1.072988963E0
7.378109000E0,4.225402683E-2,-9.442399585E-1,8.010159925E-1,1.238951622E0
7.388056000E0,-3.907723457E-2,-1.179565830E0,6.912858280E-1,1.367764115E0
7.398002000E0,-5.463053584E-2,-1.341118551E0,5.550972319E-1,1.452486283E0
7.407949000E0,-4.608366072E-2,-1.446853167E0,4.921361679E-1,1.528955787E0
7.417895000E0,4.800008565E-2,-1.447765333E0,3.980901361E-1,1.502266363E0
7.427842000E0,1.551833493E-1,-1.262982793E0,3.834522529E-1,1.329000767E0
7.437789000E0,1.378489861E-1,-1.173494081E0,4.276302330E-1,1.256566082E0
7.447735000E0,1.631241605E-1,-1.142991496E0,4.083683352E-1,1.224664750E0
7.457682000E0,1.649318272E-1,-1.008341230E0,3.630986434E-1,1.084340891E0
7.467629000E0,1.406150115E-1,-8.785342115E-1,3.109654534E-1,9.424937429E-1
7.477575000E0,1.883499259E-1,-7.229374641E-1,2.514565855E-1,7.882542014E-1
7.487522000E0,2.744060299E-1,-4.149692935E-1,2.829865265E-1,5.723456630E-1
7.497468000E0,4.439720678E-1,-1.714918184E-1,4.069825816E-1,6.262231731E-1
7.507415000E0,5.735832042E-1,-1.231698436E-1,5.950325453E-1,8.356029155E-1
7.517362000E0,5.589172179E-1,-1.549564773E-1,6.839698648E-1,8.967802085E-1
7.527308000E0,5.848689151E-1,-9.933834672E-3,5.299542046E-1,7.893172922E-1
7.537255000E0,5.952111778E-1,1.736839396E-1,2.945839306E-1,6.864562252E-1
7.547201000E0,6.642887217E-1,2.252587205E-1,1.774595598E-1,7.235419078E-1
7.557148000E0,7.638685584E-1,2.233636379E-1,2.154826876E-1,8.245115390E-1
7.567095000E0,8.599675477E-1,2.329934174E-1,4.133922994E-1,9.822032930E-1
7.577041000E0,8.906309313E-1,5.624436736E-2,5.868954869E-1,1.068097934E0
7.586988000E0,8.684109271E-1,-2.013237280E-1,6.140348268E-1,1.082454410E0
7.596935000E0,7.663340369E-1,-4.566318744E-1,4.907861189E-1,1.018160861E0
7.606881000E0,6.090389657E-1,-7.233286428E-1,4.206989801E-1,1.034949477E0
7.616828000E0,4.175639954E-1,-9.672534299E-1,3.633518279E-1,1.114434134E0
7.626774000E0,1.348274374E-1,-1.135505891E0,1.310805416E-1,1.150970970E0
7.636721000E0,-1.755918860E-3,-1.259784366E0,1.135622835E-1,1.264893721E0
7.646668000E0,-9.169950765E-2,-1.337302074E0,3.024529307E-1,1.374140972E0
7.656614000E0,-2.379835043E-1,-1.564836531E0,4.733183661E-1,1.652083470E0
7.666561000E0,-3.577463946E-1,-1.866430067E0,5.381321204E-1,1.975127808E0
7.676508000E0,-4.884039267E-1,-2.133725590E0,5.269874735E-1,2.251452661E0
7.686454000E0,-5.849949226E-1,-2.352344213E0,4.386511016E-1,2.463362974E0
7.696401000E0,-6.580903807E-1,-2.548556889E0,3.863337243E-1,2.660353156E0
7.706347000E0,-7.070649049E-1,-2.733248212E0,2.710617149E-1,2.836205392E0
7.716294000E0,-6.640826073E-1,-2.923673315E0,8.831312925E-2,2.999445044E0
7.726240833E0,-5.533176683E-1,-3.028177677E0,-7.250255048E-3,3.078323091E0
7.736186833E0,-5.613660683E-1,-3.075384588E0,-3.728403971E-2,3.126421648E0
7.746133833E0,-5.677897463E-1,-3.101135725E0,-2.318099409E-2,3.152771058E0
7.756080833E0,-5.853603736E-1,-3.118506634E0,-1.791949403E-1,3.178024735E0
7.766026833E0,-5.871461132E-1,-2.856560143E0,-3.678027284E-1,2.939380080E0
7.775973833E0,-5.560398030E-1,-2.443682399E0,-5.500193636E-1,2.565791346E0
7.785919833E0,-5.742968934E-1,-2.257062664E0,-5.910269102E-1,2.402802863E0
7.795866833E0,-5.264657192E-1,-2.232350577E0,-4.641405764E-1,2.340081564E0
7.805813833E0,-3.328884190E-1,-2.272863595E0,-3.021465366E-1,2.316897958E0
7.815759833E0,1.571640205E-2,-2.245844196E0,-1.893313810E-1,2.253865464E0
7.825706833E0,2.864381196E-1,-2.231198675E0,-1.825510959E-1,2.256904789E0
7.835653833E0,4.600086780E-1,-2.272886984E0,-1.138420728E-1,2.321762960E0
7.845599833E0,5.099666307E-1,-2.406701099E0,-4.247855991E-2,2.460504129E0
7.855546833E0,4.585226082E-1,-2.624363117E0,-5.018109709E-2,2.664590568E0
7.865492833E0,2.750021535E-1,-2.917877555E0,-1.456740224E-1,2.934426099E0
7.875439833E0,-4.477152726E-2,-3.228567020E0,-3.728257790E-1,3.250330530E0
7.885386833E0,-3.627694452E-1,-3.416388357E0,-6.510510640E-1,3.496738275E0
7.895332833E0,-4.697147271E-1,-3.545462719E0,-8.480333805E-1,3.675608580E0
7.905279833E0,-4.123509469E-1,-3.602212286E0,-9.126939377E-1,3.738846999E0
7.915225833E0,-2.374753265E-1,-3.548592149E0,-9.428445205E-1,3.679382633E0
7.925172833E0,-6.976518561E-2,-3.410258721E0,-8.649772958E-1,3.518936977E0
7.935119833E0,3.339405159E-2,-3.314419348E0,-6.704443780E-1,3.381713536E0
7.945065833E0,2.133470286E-1,-3.215185667E0,-5.522212788E-1,3.269232963E0
7.955012833E0,4.253881547E-1,-3.101109998E0,-5.793456352E-1,3.183312687E0
7.964959833E0,5.144117206E-1,-3.002776787E0,-6.327915251E-1,3.111545109E0
7.974905833E0,5.854992449E-1,-2.896063347E0,-6.933756959E-1,3.034923744E0
7.984852833E0,5.163453948E-1,-2.844483304E0,-7.125557327E-1,2.977487784E0
7.994799833E0,3.309795955E-1,-2.909159356E0,-6.763426106E-1,3.005028283E0
8.004745833E0,2.088186890E-1,-2.848858775E0,-6.923639815E-1,2.939212386E0
8.014692833E0,1.514998958E-1,-2.701443452E0,-6.791915202E-1,2.789632604E0
8.024638833E0,2.800766596E-1,-2.603590883E0,-5.001499231E-1,2.665947930E0
8.034585833E0,4.678871799E-1,-2.384299246E0,-2.498141026E-1,2.442582321E0
8.044532833E0,4.746898305E-1,-2.175803908E0,-5.780323505E-2,2.227732995E0
8.054478833E0,3.601656801E-1,-2.092744210E0,6.632387079E-2,2.124546187E0
8.064425833E0,1.225792839E-1,-2.187838647E0,1.257936354E-1,2.194877597E0
8.074371833E0,-4.184238285E-2,-2.227045398E0,1.517937183E-1,2.232604605E0
8.084318833E0,-1.628543115E-1,-2.175236728E0,7.631435037E-2,2.182658982E0
8.094265833E0,-1.495024869E-1,-2.066458637E0,3.601417065E-2,2.072172606E0
8.104211833E0,-5.533921838E-2,-1.847217286E0,-1.137224972E-1,1.851541773E0
8.114158833E0,3.346334109E-2,-1.717089840E0,-1.770279257E-1,1.726515624E0
8.124105833E0,1.458827863E-1,-1.629375758E0,4.191287834E-2,1.636430212E0
8.134051833E0,1.393704499E-1,-1.617927495E0,2.675276760E-1,1.645808178E0
8.143998833E0,5.290884146E-2,-1.664413444E0,3.730523586E-1,1.706528500E0
8.153945833E0,1.180845201E-3,-1.527909025E0,3.341332912E-1,1.564018043E0
8.163891833E0,7.173831940E-2,-1.149635687E0,1.257753628E-1,1.158718276E0
8.173838833E0,2.482923648E-1,-7.354931903E-1,1.605826682E-1,7.927080955E-1
8.183784833E0,4.029000556E-1,-4.528867328E-1,5.717623447E-1,8.332748804E-1
8.193731833E0,5.013797387E-1,-3.255051398E-1,1.090282356E0,1.243402933E0
8.203678833E0,4.857755667E-1,-4.258761048E-1,1.296946346E0,1.448936914E0
8.213624833E0,3.262372112E-1,-6.729759300E-1,1.193132540E0,1.408152186E0
8.223571833E0,1.209069711E-1,-8.964892566E-1,7.830760771E-1,1.196461293E0
8.233517833E0,4.214152275E-2,-9.254721504E-1,3.039907484E-1,9.750307607E-1
8.243464833E0,9.998124808E-2,-8.449881506E-1,1.231715977E-1,8.597513984E-1
8.253411833E0,2.053223464E-1,-8.284136331E-1,4.031000304E-1,9.438834928E-1
8.263357833E0,2.475050737E-1,-7.813400388E-1,6.999145641E-1,1.077790061E0
8.273304833E0,8.543838222E-2,-7.862493610E-1,7.532182936E-1,1.092165543E0
8.283251833E0,-1.926514666E-1,-9.373057455E-1,7.907021619E-1,1.241316461E0
8.293197833E0,-5.309745437E-1,-9.776363307E-1,5.375883293E-1,1.235600248E0
8.303144833E0,-7.606850418E-1,-6.365243876E-1,2.990827417E-1,1.035980461E0
8.313090833E0,-7.265127441E-1,-1.828284001E-1,2.872380370E-1,8.023419976E-1
8.323037833E0,-4.973890141E-1,1.607142305E-1,4.867198920E-1,7.142276587E-1
8.332984833E0,-2.831221453E-1,3.194737369E-1,8.344741260E-1,9.373199478E-1
8.342930833E0,3.247251213E-2,3.775032592E-1,1.382813877E0,1.433784291E0
8.352877833E0,2.657033265E-1,3.752403867E-1,1.821083740E0,1.878230442E0
8.362824833E0,2.444285978E-2,2.468314379E-1,1.861164503E0,1.877619908E0
8.372770833E0,-4.196195841E-1,1.700113034E-1,1.531291054E0,1.596820820E0
8.382717833E0,-8.392111015E-1,5.233158606E-1,9.568060635E-1,1.376085973E0
8.392663833E0,-1.110731238E0,1.274897665E0,3.701962861E-1,1.730934207E0
8.402610833E0,-9.516615370E-1,1.969287268E0,4.909369040E-1,2.241600113E0
8.412557833E0,-6.538599202E-1,2.279051703E0,1.400214021E0,2.753581080E0
8.422503833E0,-5.218669206E-1,2.194352446E0,2.217403047E0,3.162973919E0
8.432450833E0,-6.009736088E-1,1.847126069E0,2.326279372E0,3.030613751E0
8.442397833E0,-7.851687956E-1,1.513386880E0,1.915275075E0,2.564197438E0
8.452343833E0,-9.145802495E-1,1.614540787E0,1.120091461E0,2.167441780E0
8.462290833E0,-7.201685151E-1,2.123209957E0,3.242883343E-1,2.265353424E0
8.472237833E0,2.588079974E-2,2.988006136E0,4.707903224E-1,3.024978349E0
8.482183833E0,2.883643277E0,1.003019912E1,1.283812330E0,1.051515417E1
8.492130833E0,6.617828389E0,2.491209035E1,4.149661945E0,2.610799863E1
8.502076833E0,4.701376854E0,2.415401054E1,9.598593918E0,2.641310612E1
8.512023833E0,2.031290850E0,1.129654348E1,1.246016045E1,1.694088650E1
8.521970833E0,2.439796632E0,-2.066674399E0,7.466013213E0,8.121890418E0
8.531916833E0,8.657802647E-1,-5.779444084E0,-7.683446020E-2,5.844437776E0
8.541863833E0,-2.252395124E0,-4.851060605E-1,-8.554580580E0,8.859427780E0
8.551810833E0,-3.488882137E0,2.777263128E0,-9.389098706E0,1.039426109E1
8.561756833E0,-2.495030892E0,1.959661582E0,-5.746793232E0,6.564380026E0
8.571703833E0,-1.886130652E0,4.851504993E-1,-1.675160626E0,2.568856354E0
8.581649833E0,-1.387618973E0,5.372129381E-1,6.101087138E-1,1.608202971E0
8.591596833E0,-1.006217813E0,1.248648344E0,1.423173698E0,2.144066312E0
8.601543833E0,-1.064398632E0,3.066454135E0,2.134725464E0,3.884988831E0
8.611489833E0,-6.667197016E-1,5.544602947E0,2.830000336E0,6.260673997E0
8.621436833E0,-5.023255259E-2,7.087347527E0,3.298849382E0,7.817635546E0
8.631383833E0,1.080954292E0,6.441916661E0,3.935636310E0,7.626007187E0
8.641329833E0,9.208873487E-1,5.275681897E0,4.583659247E0,7.049169106E0
8.651276833E0,7.006893933E-2,4.491670851E0,3.955477082E0,5.985467035E0
8.661222833E0,5.750006606E-2,3.476028787E0,2.094327928E0,4.058607133E0
8.671169833E0,1.262527971E-1,2.506372737E0,6.484103152E-1,2.591964506E0
8.681116833E0,-7.215200990E-2,1.849869583E0,-3.590599716E-2,1.851624321E0
8.691062833E0,-2.412953124E-1,1.472842872E0,-4.487571368E-1,1.558484045E0
8.701009833E0,-3.457686657E-1,1.375711849E0,-6.991384193E-1,1.581434030E0
8.710956833E0,-4.088820496E-1,1.485377548E0,-3.892620099E-1,1.589042448E0
8.720902833E0,-3.692885059E-1,1.569930040E0,4.547249512E-1,1.675657815E0
8.730849500E0,-2.508414584E-1,1.624737747E0,1.145197066E0,2.003539494E0
8.740795500E0,-2.707140248E-2,1.807550944E0,1.567899595E0,2.392965193E0
8.750742500E0,7.766772497E-2,1.897296934E0,1.840851130E0,2.644711858E0
8.760689500E0,1.376656759E-1,1.738945563E0,2.098211941E0,2.728621787E0
8.770635500E0,7.143894196E-2,1.382747219E0,2.103262766E0,2.518096038E0
8.780582500E0,-1.250830525E-1,9.233724153E-1,1.718681452E0,1.955026425E0
8.790529500E0,-2.904118691E-1,5.291771096E-1,1.111354990E0,1.264704464E0
8.800475500E0,-4.116831217E-1,1.813671809E-1,6.140896444E-1,7.612378987E-1
8.810422500E0,-5.567730073E-1,-2.513601065E-2,3.899471574E-1,6.802108396E-1
8.820368500E0,-5.822961036E-1,3.948858619E-2,3.931941162E-1,7.037255955E-1
8.830315500E0,-4.204823408E-1,1.469726890E-1,6.985826415E-1,8.285071377E-1
8.840262500E0,-2.835931751E-1,5.907032669E-2,1.056683085E0,1.095670359E0
8.850208500E0,-2.314251941E-1,-1.075180167E-1,1.201094694E0,1.227903175E0
8.860155500E0,-3.022303345E-1,-2.484774292E-1,1.116123102E0,1.182715091E0
8.870102500E0,-4.068100888E-1,-4.104838943E-1,8.704159373E-1,1.044803991E0
8.880048500E0,-4.313432515E-1,-5.381566787E-1,6.683677393E-1,9.604087913E-1
8.889995500E0,-5.166973972E-1,-7.151963353E-1,5.551060027E-1,1.042412909E0
8.899941500E0,-6.450411496E-1,-8.903274608E-1,4.506297076E-1,1.188203773E0
8.909888500E0,-6.845387989E-1,-9.187858593E-1,3.190579998E-1,1.189352273E0
8.919835500E0,-6.283151892E-1,-9.773726213E-1,2.284448683E-1,1.184155512E0
8.929781500E0,-4.904568110E-1,-9.709260660E-1,2.348592274E-1,1.112836091E0
8.939728500E0,-2.678196896E-1,-8.753983498E-1,2.756955967E-1,9.560636584E-1
8.949675500E0,-1.529192891E-1,-7.698368114E-1,3.914388917E-1,8.770732188E-1
8.959621500E0,-1.407082563E-1,-8.567615193E-1,3.685552651E-1,9.432243094E-1
8.969568500E0,-2.840398841E-1,-1.011587604E0,3.952694392E-1,1.122597909E0
8.979515500E0,-4.433426151E-1,-1.083936372E0,3.496079475E-1,1.222168749E0
8.989461500E0,-3.825602236E-1,-1.154753755E0,1.591021532E-1,1.226834160E0
8.999408500E0,-3.632951099E-1,-1.162431734E0,1.879880289E-2,1.218024741E0
9.009354500E0,-2.434116939E-1,-1.117390632E0,-5.120053173E-2,1.144741268E0
9.019301500E0,-6.395128995E-2,-9.666733861E-1,2.106330983E-1,9.914199438E-1
9.029248500E0,9.420446854E-3,-1.040915483E0,3.988280912E-1,1.114745547E0
9.039194500E0,1.372212784E-1,-1.148911217E0,4.360479943E-1,1.236513048E0
9.049141500E0,2.723320225E-1,-1.279246239E0,4.096723739E-1,1.370571824E0
9.059088500E0,1.144142137E-1,-1.495983227E0,3.056153242E-1,1.531162028E0
9.069034500E0,1.381988506E-2,-1.752508764E0,1.322102968E-1,1.757543035E0
9.078981500E0,5.650836001E-2,-1.946467924E0,-1.706824907E-1,1.954753971E0
9.088927500E0,9.825690418E-2,-1.932847420E0,-3.736838579E-1,1.971089342E0
9.098874500E0,1.705732391E-1,-1.796110282E0,-3.482310013E-1,1.837490736E0
9.108821500E0,1.551187375E-1,-1.817803452E0,-1.549067760E-1,1.830974419E0
9.118767500E0,1.180538222E-1,-1.949702604E0,-3.102532625E-3,1.953275857E0
9.128714500E0,4.482415220E-2,-1.957686977E0,3.253054574E-2,1.958470255E0
9.138661500E0,7.588253349E-2,-1.897149584E0,-1.278014231E-1,1.902962928E0
9.148607500E0,1.695221838E-1,-1.826469610E0,-2.179327440E-1,1.847220531E0
9.158554500E0,2.393072774E-1,-1.859571283E0,-1.375757749E-1,1.879946920E0
9.168500500E0,1.999663334E-1,-1.972590945E0,-2.231078222E-2,1.982826100E0
9.178447500E0,4.796942431E-2,-2.123661947E0,9.898970649E-2,2.126508898E0
9.188394500E0,-1.629981530E-1,-2.394747051E0,1.580666113E-1,2.405486830E0
9.198340500E0,-3.465735349E-1,-2.670383627E0,-4.549952388E-2,2.693163964E0
9.208287500E0,-4.839857340E-1,-2.796375337E0,-1.574222481E-1,2.842312260E0
9.218234500E0,-4.532515991E-1,-2.722102250E0,-1.731734776E-1,2.765007545E0
9.228180500E0,-4.118047804E-1,-2.619884149E0,-1.744002235E-1,2.657779444E0
9.238127500E0,-3.689262709E-1,-2.556104475E0,-1.020090625E-2,2.582611225E0
9.248074500E0,-3.075343438E-1,-2.504602785E0,1.117123707E-1,2.525884426E0
9.258020500E0,-1.706533642E-1,-2.437563872E0,9.122255757E-2,2.445232455E0
9.267967500E0,7.662863821E-2,-2.281451985E0,2.037637711E-2,2.282829452E0
9.277913500E0,2.864902147E-1,-2.163899562E0,-1.053377362E-1,2.185322401E0
9.287860500E0,3.360708027E-1,-2.137027513E0,-2.024506326E-1,2.172743987E0
9.297807500E0,4.084902496E-1,-2.094453351E0,-2.965191762E-1,2.154419352E0
9.307753500E0,4.550689502E-1,-2.088096258E0,-4.216826279E-1,2.178313561E0
9.317700500E0,4.306752436E-1,-2.102238919E0,-4.939167912E-1,2.202008954E0
9.327647500E0,4.198627917E-1,-2.163211929E0,-5.089415042E-1,2.261590606E0
9.337593500E0,4.008196163E-1,-2.220583055E0,-4.778321242E-1,2.306505801E0
9.347540500E0,4.616821146E-1,-2.304104683E0,-4.024954283E-1,2.384124858E0
9.357486500E0,5.804969519E-1,-2.455666852E0,-4.379330635E-1,2.561066529E0
9.367433500E0,5.781715143E-1,-2.599765050E0,-4.873525608E-1,2.707503118E0
9.377380500E0,5.280053641E-1,-2.715931098E0,-4.712693556E-1,2.806628975E0
9.387326500E0,3.553429331E-1,-2.897404699E0,-5.103767033E-1,2.963394501E0
9.397273500E0,1.554224638E-1,-3.000576480E0,-7.052722947E-1,3.086263820E0
9.407220500E0,6.614333801E-3,-3.030226541E0,-9.398906533E-1,3.172650482E0
9.417166500E0,-2.745538183E-2,-3.096242191E0,-1.135727866E0,3.298082365E0
9.427113500E0,2.575051647E-2,-3.100753317E0,-1.153699941E0,3.308528038E0
9.437059500E0,6.412988584E-2,-2.992997319E0,-9.855223243E-1,3.151729659E0
9.447006500E0,1.969023558E-1,-2.838376472E0,-7.289349532E-1,2.937090006E0
9.456953500E0,2.858291138E-1,-2.718980421E0,-4.528141543E-1,2.771207945E0
9.466899500E0,3.171292592E-1,-2.545093583E0,-3.313136177E-1,2.586086044E0
9.476846500E0,2.978460008E-1,-2.419253901E0,-3.773113243E-1,2.466549313E0
9.486793500E0,3.874590209E-1,-2.312726403E0,-3.523894680E-1,2.371287887E0
9.496739500E0,4.155432342E-1,-2.163146440E0,-2.342231599E-1,2.215116067E0
9.506686500E0,2.657463035E-1,-2.116873330E0,-2.372227085E-1,2.146636533E0
9.516633500E0,2.335734612E-1,-2.058589454E0,-2.615307534E-1,2.088239794E0
9.526579500E0,1.576999909E-1,-1.967057140E0,-3.167682302E-1,1.998630829E0
9.536526500E0,1.675490226E-1,-1.923461469E0,-3.615660151E-1,1.964308194E0
9.546472500E0,2.151696240E-1,-1.954675076E0,-1.764701013E-1,1.974384541E0
9.556419500E0,1.378825984E-1,-1.920643111E0,-7.260600965E-2,1.926954386E0
9.566366500E0,-4.299953769E-2,-1.877073169E0,-1.427679928E-1,1.882985752E0
9.576312500E0,-2.709020859E-1,-1.921270518E0,-1.013486012E-1,1.942920452E0
9.586259500E0,-3.677965888E-1,-1.825770283E0,-5.986964107E-2,1.863409733E0
9.596206500E0,-4.031178644E-1,-1.624709095E0,-1.318301547E-1,1.679155397E0
9.606152500E0,-2.803932863E-1,-1.430754029E0,-1.049750626E-1,1.461744591E0
9.616099500E0,-9.293739974E-2,-1.329366817E0,1.510745291E-1,1.341147646E0
9.626046500E0,2.739397692E-4,-1.303260754E0,3.256115957E-1,1.343321100E0
9.635992500E0,-7.834976614E-3,-1.277418984E0,3.717601240E-1,1.330438363E0
9.645939500E0,-6.458980590E-2,-1.159523329E0,4.723245953E-1,1.253697219E0
9.655885500E0,2.515764534E-3,-9.279045922E-1,4.697653055E-1,1.040044568E0
9.665832500E0,1.631998819E-1,-6.492643011E-1,2.810369917E-1,7.260579349E-1
9.675779500E0,4.728657916E-1,-4.751038134E-1,2.061984786E-1,7.013155516E-1
9.685725500E0,6.183921719E-1,-4.972589135E-1,3.727739581E-1,8.767187286E-1
9.695672500E0,6.234149301E-1,-6.317951596E-1,6.338837119E-1,1.090696960E0
9.705619500E0,5.269569218E-1,-7.840806288E-1,7.672341426E-1,1.217010378E0
9.715565500E0,2.801450720E-1,-8.716894609E-1,7.109342267E-1,1.159202852E0
9.725512500E0,6.459479431E-2,-8.341830808E-1,6.188645538E-1,1.040685945E0
9.735458708E0,-7.996273885E-2,-6.685805780E-1,5.270055999E-1,8.550607763E-1
9.745405708E0,-8.328715503E-2,-5.867546421E-1,3.327533484E-1,6.796635573E-1
9.755352708E0,-1.046338776E-1,-6.557547104E-1,2.993107831E-1,7.283882437E-1
9.765298708E0,-2.601394450E-1,-8.269132376E-1,4.032568820E-1,9.560722494E-1
9.775245708E0,-4.965712810E-1,-9.042982131E-1,5.112834603E-1,1.151411773E0
9.785192708E0,-7.355563402E-1,-8.623906338E-1,5.156542540E-1,1.245255012E0
9.795138708E0,-7.932803455E-1,-5.538839346E-1,4.058726339E-1,1.049196700E0
9.805085708E0,-7.626979458E-1,-9.221702278E-2,2.996047519E-1,8.246060534E-1
9.815031708E0,-6.268656644E-1,1.274652082E-1,3.877731626E-1,7.480481042E-1
9.824978708E0,-4.305196711E-1,1.570661527E-1,6.756276423E-1,8.163881886E-1
9.834925708E0,-2.004960546E-1,2.623212969E-1,1.117836190E0,1.165576629E0
9.844871708E0,-1.190963808E-1,4.133677411E-1,1.437237421E0,1.500236062E0
9.854818708E0,-1.678320462E-1,6.507056397E-1,1.446898191E0,1.595336892E0
9.864765708E0,-1.891381305E-1,8.988819373E-1,1.206536697E0,1.516407851E0
9.874711708E0,-1.652408525E-1,1.101757516E0,8.594003677E-1,1.407033459E0
9.884658708E0,-5.152917266E-2,1.278291389E0,5.970510042E-1,1.411791072E0
9.894605708E0,7.949085027E-2,1.423544412E0,6.686922598E-1,1.574784692E0
9.904551708E0,9.492048293E-2,1.505453963E0,1.020294108E0,1.821099008E0
9.914498708E0,6.268799901E-3,1.577374130E0,1.295980970E0,2.041498254E0
9.924444708E0,3.489501357E-2,1.792038866E0,1.170847632E0,2.140912220E0
9.934391708E0,7.052646568E-2,2.107111988E0,1.043168123E0,2.352253100E0
9.944338708E0,7.295205519E-2,2.297688534E0,1.093165033E0,2.545526348E0
9.954284708E0,-8.540019259E-2,2.346492319E0,1.110496180E0,2.597406622E0
9.964231708E0,-3.093016282E-1,2.446216582E0,9.580367562E-1,2.645274558E0
9.974178708E0,-6.291050018E-1,2.605106481E0,7.569299600E-1,2.784833181E0
9.984124708E0,-7.714731547E-1,2.943095427E0,4.343390724E-1,3.073374684E0
9.994071708E0,5.567723495E-1,5.966052709E0,1.372321048E-1,5.993547616E0
1.000401871E1,4.403228498E0,1.593520866E1,9.327373159E-1,1.655866224E1
1.001396471E1,4.719992050E0,1.865956910E1,4.628112704E0,1.979589026E1
1.002391171E1,2.645656922E0,1.150876817E1,7.580918602E0,1.403287470E1
1.003385771E1,1.455742543E0,2.807110825E0,6.915586737E0,7.604235494E0
1.004380471E1,7.924436089E-1,-9.024844068E-1,2.548177990E0,2.817029649E0
1.005375171E1,-1.645723404E0,1.920137912E-1,-1.821315582E0,2.462207397E0
1.006369771E1,-2.938246038E0,1.160537236E0,-4.474475066E0,5.477322665E0
1.007364471E1,-2.671333800E0,8.956729853E-1,-3.252949909E0,4.303479694E0
1.008359171E1,-1.987587445E0,7.797922808E-1,-1.414473626E-1,2.139763353E0
1.009353771E1,-1.020603426E0,1.913788421E0,2.498654704E0,3.308699564E0
1.010348471E1,-1.047509681E-1,3.561569459E0,3.390475252E0,4.918442051E0
1.011343071E1,5.257655516E-1,4.763874527E0,3.058460991E0,5.685517879E0
1.012337771E1,9.157935467E-1,4.884237707E0,2.877408391E0,5.742293518E0
1.013332471E1,9.843699843E-1,4.119565741E0,3.250475952E0,5.339044865E0
1.014327071E1,4.239742979E-1,3.219999095E0,3.249983032E0,4.594620559E0
1.015321771E1,-9.478789732E-2,2.533347697E0,2.632410055E0,3.654643347E0
1.016316471E1,-4.218087816E-1,2.098373324E0,1.397832450E0,2.556370242E0
1.017311071E1,-5.990808651E-1,1.891697055E0,4.165924805E-1,2.027551461E0
1.018305771E1,-7.142128336E-1,1.710084291E0,3.167436719E-3,1.853239943E0
1.019300471E1,-6.349234200E-1,1.702906249E0,8.771408200E-3,1.817441713E0
1.020295071E1,-4.800724849E-1,1.979049194E0,3.133087251E-1,2.060404733E0
1.021289771E1,-3.580419713E-1,2.279538192E0,9.390947011E-1,2.491262186E0
1.022284371E1,-2.560606831E-1,2.457529190E0,1.590551123E0,2.938514875E0
1.023279071E1,-1.740502676E-1,2.512004190E0,2.025303594E0,3.231456822E0
1.024273771E1,-1.065947413E-1,2.427169277E0,2.231326729E0,3.298686422E0
1.025268371E1,-1.506324796E-1,2.108788970E0,2.075021591E0,2.962329433E0
1.026263071E1,-3.033465131E-1,1.663009527E0,1.661774888E0,2.370467374E0
1.027257771E1,-4.234071180E-1,1.166774461E0,1.193566403E0,1.721986350E0
1.028252371E1,-4.581547818E-1,7.642778635E-1,7.536353463E-1,1.167044426E0
1.029247071E1,-4.623007500E-1,5.150736254E-1,3.874860643E-1,7.932012816E-1
1.030241771E1,-3.719092280E-1,3.788937271E-1,1.979703498E-1,5.666296759E-1
1.031236371E1,-2.824398118E-1,2.162545931E-1,2.032638341E-1,4.097004792E-1
1.032231071E1,-7.000489404E-2,1.356630045E-1,2.613259546E-1,3.026489560E-1
1.033225671E1,1.515846621E-1,2.070434743E-1,3.998760219E-1,4.751270808E-1
1.034220371E1,3.598651332E-1,3.131213218E-1,6.298171927E-1,7.900744094E-1
1.035215071E1,3.997165391E-1,2.667786294E-1,7.436073714E-1,8.853790553E-1
1.036209671E1,2.856157270E-1,1.051762068E-1,7.609741867E-1,8.195853163E-1
1.037204371E1,1.199594115E-1,-1.229213369E-1,7.085838653E-1,7.291028800E-1
1.038199071E1,-4.045308441E-2,-3.152105319E-1,6.151855588E-1,6.924214058E-1
1.039193671E1,-1.462449848E-1,-4.770146835E-1,4.252293297E-1,6.555536490E-1
1.040188371E1,-1.821778791E-1,-5.480501676E-1,2.820152309E-1,6.427132769E-1
1.041182971E1,-1.240010253E-1,-5.768254852E-1,3.557299823E-1,6.889468158E-1
1.042177671E1,-1.878599109E-1,-6.537608099E-1,4.892224272E-1,8.378741707E-1
1.043172371E1,-1.429521435E-1,-6.882301462E-1,5.736668193E-1,9.072980045E-1
1.044166971E1,-1.908101419E-1,-6.681303424E-1,5.610976446E-1,8.931053865E-1
1.045161671E1,-1.973990768E-1,-6.371096939E-1,5.426157653E-1,8.598296496E-1
1.046156371E1,-1.360690936E-1,-5.821330029E-1,5.868382573E-1,8.377187902E-1
1.047150971E1,-1.221328490E-1,-6.451338279E-1,6.498741657E-1,9.238238576E-1
1.048145671E1,-1.291348806E-1,-8.209876692E-1,5.883070413E-1,1.018234622E0
1.049140371E1,-6.056516737E-2,-8.749340808E-1,5.373491782E-1,1.028553316E0
1.050134971E1,-1.908326536E-2,-8.553073168E-1,5.067694098E-1,9.943490392E-1
1.051129671E1,3.917400599E-2,-8.565773320E-1,5.851519203E-1,1.038105052E0
1.052124371E1,9.294295460E-2,-8.422615939E-1,7.205979931E-1,1.112341878E0
1.053118971E1,1.233245024E-1,-8.712058961E-1,7.871521711E-1,1.180600350E0
1.054113671E1,5.000599125E-2,-9.688491350E-1,8.599172616E-1,1.296389965E0
1.055108271E1,2.635018498E-2,-9.590246433E-1,8.679899275E-1,1.293765478E0
1.056102971E1,-2.530998359E-2,-1.015546169E0,7.552439153E-1,1.265846747E0
1.057097671E1,-1.913308181E-1,-1.081629061E0,7.361795803E-1,1.322304535E0
1.058092271E1,-2.366546149E-1,-1.130593060E0,6.042886146E-1,1.303614515E0
1.059086971E1,-2.808604789E-1,-1.202092813E0,5.260751617E-1,1.341888526E0
1.060081671E1,-1.620807248E-1,-1.236513033E0,5.066378474E-1,1.346074497E0
1.061076271E1,-3.401590297E-2,-1.259000840E0,4.542936460E-1,1.338888686E0
1.062070971E1,-5.669200826E-2,-1.449181529E0,4.723065785E-1,1.525258860E0
1.063065571E1,-9.097547617E-2,-1.697315726E0,4.894017175E-1,1.768805035E0
1.064060271E1,-1.902122641E-1,-1.891348561E0,3.495512295E-1,1.932761275E0
1.065054971E1,-3.658003494E-1,-1.982157574E0,2.059950686E-1,2.026127467E0
1.066049571E1,-3.291070247E-1,-2.032066483E0,4.419325590E-3,2.058549285E0
1.067044271E1,-2.271321319E-1,-2.137819226E0,-1.513716955E-1,2.155173644E0
1.068038971E1,-2.523906417E-1,-2.268852405E0,-2.809003861E-1,2.300064629E0
1.069033571E1,-2.521290519E-1,-2.339521853E0,-3.045696227E-1,2.372697666E0
1.070028271E1,-2.763119664E-1,-2.429118154E0,-2.967507260E-1,2.462727005E0
1.071022971E1,-3.173822244E-1,-2.403889757E0,-3.897881131E-1,2.455881148E0
1.072017571E1,-3.905633442E-1,-2.374722676E0,-2.543794625E-1,2.420032319E0
1.073012312E1,-4.219412576E-1,-2.482844126E0,-1.015484481E-1,2.520488338E0
1.074006912E1,-4.693425153E-1,-2.662457727E0,-2.280041344E-1,2.713106969E0
1.075001612E1,-5.201817165E-1,-2.823461979E0,-4.817896660E-1,2.911124842E0
1.075996312E1,-4.270377273E-1,-2.883309985E0,-6.646632358E-1,2.989584404E0
1.076990912E1,-2.958819759E-1,-2.701233537E0,-6.965367007E-1,2.805240122E0
1.077985612E1,-1.959404158E-1,-2.542971629E0,-6.060769124E-1,2.621531342E0
1.078980312E1,-5.235479951E-2,-2.451834002E0,-4.299422586E-1,2.489795442E0
1.079974912E1,7.029763855E-2,-2.461749126E0,-3.245252927E-1,2.484042508E0
1.080969612E1,1.421279054E-2,-2.534749859E0,-3.661022119E-1,2.561091502E0
1.081964312E1,1.214780979E-2,-2.511359827E0,-3.759430759E-1,2.539371762E0
1.082958913E1,4.251802862E-3,-2.335301918E0,-3.588775384E-1,2.362720088E0
1.083953612E1,1.640016083E-2,-2.129125001E0,-3.879671440E-1,2.164245998E0
1.084948312E1,6.194949567E-2,-1.993273716E0,-4.512226152E-1,2.044646594E0
1.085942912E1,8.755752280E-2,-1.958634810E0,-4.669785225E-1,2.015436821E0
1.086937612E1,1.138167470E-1,-1.945434721E0,-4.785020690E-1,2.006647636E0
1.087932212E1,2.029730813E-1,-1.901319818E0,-4.626679552E-1,1.967301898E0
1.088926912E1,2.677628620E-1,-1.790560690E0,-4.943949473E-1,1.876760746E0
1.089921612E1,2.810180613E-1,-1.649606540E0,-5.120886219E-1,1.749973612E0
1.090916212E1,3.350683341E-1,-1.532702572E0,-4.937554081E-1,1.644762100E0
1.091910912E1,3.181937083E-1,-1.496736934E0,-5.100045280E-1,1.612939336E0
1.092905612E1,3.983719353E-1,-1.484694593E0,-5.072317784E-1,1.618734787E0
1.093900213E1,5.336008206E-1,-1.559093980E0,-4.704248714E-1,1.713710429E0
1.094894912E1,5.875285942E-1,-1.725817979E0,-4.113038202E-1,1.868905663E0
1.095889612E1,5.789171074E-1,-1.873410473E0,-4.725077958E-1,2.016947058E0
1.096884213E1,5.388590024E-1,-1.928762555E0,-5.153620394E-1,2.067871381E0
1.097878912E1,3.312780958E-1,-1.975147347E0,-5.314662945E-1,2.072054209E0
1.098873512E1,1.148930367E-1,-2.023963412E0,-5.862042730E-1,2.110275753E0
1.099868212E1,5.580801889E-4,-2.087224438E0,-6.525982372E-1,2.186867766E0
1.100862912E1,-5.459198076E-2,-2.172144721E0,-7.184495799E-1,2.288528516E0
1.101857512E1,-4.583135337E-2,-2.267430947E0,-7.797753239E-1,2.398206240E0
1.102852212E1,8.909051657E-2,-2.234855524E0,-7.142198503E-1,2.347898279E0
1.103846912E1,2.648736066E-1,-1.977678022E0,-4.929810905E-1,2.055334217E0
1.104841512E1,3.985479365E-1,-1.632861868E0,-1.844526836E-1,1.690887675E0
1.105836212E1,4.125424066E-1,-1.475257772E0,9.568149805E-2,1.534839301E0
1.106830912E1,4.188982935E-1,-1.395242134E0,1.359408204E-1,1.463098185E0
1.107825513E1,3.792460218E-1,-1.291161695E0,-3.530892335E-2,1.346169673E0
1.108820212E1,3.588146809E-1,-1.215682912E0,-1.698826647E-1,1.278863964E0
1.109814812E1,1.315907477E-1,-1.302455592E0,-2.109535805E-1,1.325974399E0
1.110809512E1,-1.653824648E-2,-1.343790144E0,-2.131685058E-1,1.360693308E0
1.111804212E1,-3.365054335E-3,-1.158390139E0,-2.357118610E-1,1.182133291E0
1.112798812E1,1.302870927E-1,-1.007582261E0,-1.996462349E-1,1.035401062E0
1.113793512E1,2.332904559E-1,-1.028281404E0,-9.647321105E-2,1.058817342E0
1.114788212E1,2.644514376E-1,-1.044512690E0,7.911173142E-2,1.080370302E0
1.115782812E1,2.762046334E-1,-1.045050049E0,1.359465945E-1,1.089449440E0
1.116777512E1,3.017844477E-1,-1.065817605E0,1.044417965E-1,1.112631614E0
1.117772212E1,3.301644936E-1,-1.012818443E0,-6.278389335E-2,1.067123052E0
1.118766812E1,3.467580146E-1,-9.973700988E-1,-3.043651529E-1,1.098920553E0
1.119761512E1,2.765025491E-1,-1.154794686E0,-4.216976845E-1,1.260092601E0
1.120756112E1,1.052069047E-1,-1.363649628E0,-5.817838876E-1,1.486297847E0
1.121750813E1,-1.196915908E-3,-1.398301397E0,-7.134714067E-1,1.569805618E0
1.122745512E1,-1.929508075E-1,-1.315232343E0,-7.705519259E-1,1.536494842E0
1.123740112E1,-2.768489966E-1,-1.112476047E0,-5.555579925E-1,1.273928179E0
1.124734812E1,-2.149433733E-1,-8.397133774E-1,-3.000978184E-1,9.172665427E-1
1.125729512E1,-1.195813890E-1,-6.601670194E-1,5.816341440E-2,6.734264509E-1
1.126724112E1,3.275259376E-2,-6.352064252E-1,4.480323744E-1,7.780057477E-1
1.127718812E1,1.265574462E-1,-6.873606652E-1,8.204058713E-1,1.077751022E0
1.128713512E1,3.655357629E-2,-7.958189142E-1,9.890986276E-1,1.270031497E0
1.129708112E1,-1.920325388E-1,-8.265162116E-1,8.103165007E-1,1.173293815E0
1.130702812E1,-2.925283419E-1,-7.795274019E-1,4.745823149E-1,9.583653660E-1
1.131697512E1,-3.761979048E-1,-7.718043995E-1,2.304025892E-1,8.889838288E-1
1.132692113E1,-4.774211015E-1,-8.654773790E-1,9.829527654E-2,9.932995334E-1
1.133686812E1,-5.462073810E-1,-8.925049639E-1,9.107849680E-2,1.050334664E0
1.134681412E1,-5.794163499E-1,-8.519083303E-1,1.309015437E-1,1.038559735E0
1.135676113E1,-5.467479561E-1,-7.434103203E-1,2.545771714E-1,9.572887589E-1
1.136670812E1,-4.523966996E-1,-5.229316986E-1,4.576953368E-1,8.292197275E-1
1.137665412E1,-2.489858080E-1,-1.922044104E-1,5.495568489E-1,6.332054944E-1
1.138660112E1,1.619704317E-2,1.213525289E-1,7.244649030E-1,7.347368074E-1
1.139654812E1,2.746656645E-1,3.350378555E-1,1.056640912E0,1.142007710E0
1.140649412E1,3.913196450E-1,3.979117960E-1,1.263612392E0,1.381369299E0
1.141644112E1,2.850388626E-1,2.463513815E-1,1.125512561E0,1.186892868E0
1.142638812E1,1.467040095E-1,1.180535299E-1,8.705966163E-1,8.907284494E-1
1.143633412E1,-4.257913202E-2,1.377966535E-1,5.035791689E-1,5.238252376E-1
1.144628112E1,-1.377910987E-1,2.630030823E-1,8.953665912E-2,3.101190440E-1
1.145622712E1,-4.444762805E-2,4.505507702E-1,-1.175335662E-1,4.677453659E-1
1.146617413E1,1.367105515E-1,7.675996667E-1,9.871123284E-3,7.797412791E-1
1.147612112E1,3.582530558E-1,1.095658286E0,3.357611561E-1,1.200644779E0
1.148606712E1,5.962297627E-1,1.357039350E0,8.294199389E-1,1.698523819E0
1.149601412E1,5.747827604E-1,1.491875558E0,1.177680396E0,1.985698622E0
1.150596112E1,5.084955078E-1,1.603739811E0,1.340125402E0,2.150926580E0
1.151590712E1,4.333523548E-1,1.723145801E0,1.196751966E0,2.142251382E0
1.152585412E1,5.459881470E-1,1.834058127E0,8.523731840E-1,2.094853769E0
1.153580112E1,5.678757370E-1,1.784280780E0,7.977300766E-1,2.035316690E0
1.154574712E1,4.911085197E-1,1.475216256E0,1.030033230E0,1.865052020E0
1.155569412E1,2.429284215E-1,1.062868270E0,1.153709881E0,1.587371937E0
1.156564112E1,-1.424399183E-1,5.836655581E-1,1.096413454E0,1.250230809E0
1.157558713E1,-4.493431740E-1,2.663354105E-1,9.528973460E-1,1.086672532E0
1.158553412E1,-6.039610974E-1,3.348180002E-1,5.707934976E-1,8.959226068E-1
1.159548012E1,-6.188337828E-1,5.821020126E-1,2.469746947E-2,8.499458623E-1
1.160542713E1,-4.267464629E-1,7.308943552E-1,2.949920297E-2,8.468703000E-1
1.161537412E1,-3.218515071E-1,7.107986444E-1,3.894304097E-1,8.720545565E-1
1.162532012E1,-2.622335887E-1,6.468125635E-1,6.435264283E-1,9.493467287E-1
1.163526712E1,-1.764169282E-1,8.063824940E-1,7.861593139E-1,1.139921982E0
1.164521412E1,-2.866957077E-1,9.359269720E-1,7.681250390E-1,1.244254717E0
1.165516012E1,-4.712466976E-1,9.645771593E-1,6.622427809E-1,1.261367531E0
1.166510712E1,-5.753246512E-1,1.213825836E0,4.374006745E-1,1.412689267E0
1.167505412E1,-5.456145099E-1,1.517244288E0,3.707397848E-1,1.654440513E0
1.168500012E1,-4.649521700E-1,1.646049678E0,5.553659114E-1,1.798357962E0
1.169494712E1,-3.835432868E-1,1.780084818E0,8.990538454E-1,2.030789312E0
1.170489412E1,-3.499041089E-1,1.886061509E0,1.159322477E0,2.241358853E0
1.171484013E1,-4.725515038E-1,1.820170990E0,1.129506355E0,2.193652653E0
1.172478712E1,-6.121517310E-1,1.608933892E0,8.856599209E-1,1.935921359E0
1.173473325E1,-7.199891518E-1,1.581472444E0,5.167631784E-1,1.812866143E0
1.174468025E1,-6.991395888E-1,1.703044243E0,6.150803089E-2,1.841993240E0
1.175462725E1,-4.579989535E-1,2.147225057E0,-2.850979561E-1,2.213960101E0
1.176457325E1,4.431537500E-1,3.705917918E0,-2.110260129E-3,3.732320634E0
1.177452025E1,1.500006697E0,5.955976202E0,8.594170323E-1,6.201795728E0
1.178446725E1,1.644070542E0,6.292541351E0,1.648656367E0,6.709479295E0
1.179441325E1,1.065674933E0,4.324204255E0,2.057210096E0,4.905763843E0
1.180436025E1,1.982217801E-1,1.988333988E0,1.448381630E0,2.467908683E0
1.181430725E1,-2.233244616E-1,1.195025284E0,-4.224133837E-1,1.287009056E0
1.182425325E1,-8.234224498E-1,1.089080753E0,-1.049078489E0,1.721826673E0
1.183420025E1,-8.511775745E-1,1.074708881E0,-4.453622434E-1,1.441474929E0
1.184414725E1,-5.079613647E-1,1.172728681E0,6.421391764E-1,1.430265720E0
1.185409325E1,-1.814398326E-1,1.847699681E0,1.043161399E0,2.129577476E0
1.186404025E1,2.476500481E-1,2.780719417E0,9.700162393E-1,2.955446249E0
1.187398625E1,7.411607502E-1,3.320771179E0,9.262466142E-1,3.526297388E0
1.188393325E1,7.489913414E-1,3.691465355E0,1.049644791E0,3.910199315E0
1.189388025E1,5.646729246E-1,4.021271122E0,1.347949561E0,4.278603156E0
1.190382625E1,4.230761291E-1,4.184504333E0,1.635480251E0,4.512633996E0
1.191377325E1,1.179251835E-1,4.528037024E0,1.730740750E0,4.848967847E0
1.192372025E1,-7.008912136E-2,4.840328625E0,1.735032314E0,5.142375989E0
1.193366625E1,-1.236754815E-1,5.012518017E0,1.895770226E0,5.360464275E0
1.194361325E1,-1.730451313E-1,5.151013412E0,2.368516442E0,5.672103131E0
1.195356025E1,-2.537244281E-1,5.006560289E0,2.867584484E0,5.775211059E0
1.196350625E1,-2.563036349E-1,4.481715381E0,3.065732004E0,5.436007453E0
1.197345325E1,-4.164635494E-1,4.058694472E0,2.994553556E0,5.061007182E0
1.198339925E1,-4.823686865E-1,3.538018629E0,2.519463191E0,4.370120151E0
1.199334625E1,-4.628690994E-1,2.988221313E0,2.008522670E0,3.630134672E0
1.200329325E1,-4.911322010E-1,2.487570430E0,1.704024237E0,3.054982174E0
1.201323925E1,-4.957851228E-1,1.955055730E0,1.521102866E0,2.526222422E0
1.202318625E1,-4.345966423E-1,1.448607917E0,1.342038611E0,2.021980903E0
1.203313325E1,-3.041227493E-1,1.021041967E0,1.159995199E0,1.574994034E0
1.204307925E1,-2.414964201E-1,6.589420277E-1,8.702337965E-1,1.117958844E0
1.205302625E1,-1.764666112E-1,3.022677201E-1,6.357874922E-1,7.257630294E-1
1.206297325E1,-1.813174796E-1,-1.378446007E-1,5.220926231E-1,5.696120342E-1
1.207291925E1,-1.079352155E-1,-5.267850137E-1,3.416411161E-1,6.370801469E-1
1.208286625E1,8.158678472E-2,-7.627032083E-1,9.473191023E-2,7.728820882E-1
1.209281325E1,2.591673088E-1,-8.612071574E-1,-6.443514705E-2,9.016636568E-1
1.210275925E1,3.298525447E-1,-9.889910388E-1,-9.485367849E-2,1.046853952E0
1.211270625E1,3.539193919E-1,-1.215616838E0,1.303880851E-1,1.272786033E0
1.212265225E1,2.085219793E-1,-1.333728256E0,3.728024632E-1,1.400462121E0
1.213259925E1,2.841774216E-2,-1.430242397E0,4.742081662E-1,1.507074739E0
1.214254625E1,-9.079965770E-2,-1.373684619E0,7.535540700E-1,1.569425929E0
1.215249225E1,-2.468501490E-1,-1.322825537E0,9.537861228E-1,1.649396971E0
1.216243925E1,-3.393209044E-1,-1.412406051E0,8.516415511E-1,1.683841697E0
1.217238625E1,-2.517085822E-1,-1.400492933E0,7.136888500E-1,1.591882358E0
1.218233225E1,-1.879052269E-1,-1.491687278E0,6.297900762E-1,1.630053634E0
1.219227925E1,-8.541349500E-2,-1.640878986E0,4.653132355E-1,1.707716521E0
1.220222625E1,1.819945872E-2,-1.674070705E0,2.639398062E-1,1.694847535E0
1.221217225E1,1.074741717E-1,-1.666839454E0,8.163878839E-2,1.672294637E0
1.222211925E1,2.682439417E-1,-1.576584756E0,4.401489755E-2,1.599847373E0
1.223206625E1,4.965259650E-1,-1.483944980E0,1.328294438E-1,1.570437646E0
1.224201225E1,6.735667911E-1,-1.498024490E0,2.248394752E-1,1.657806498E0
1.225195925E1,7.156360459E-1,-1.608798822E0,3.775196314E-1,1.800802507E0
1.226190525E1,6.878342897E-1,-1.730109251E0,4.549496305E-1,1.916604601E0
1.227185225E1,6.573053920E-1,-1.800905584E0,3.734756970E-1,1.953150121E0
1.228179925E1,6.292095208E-1,-1.804979923E0,2.471688223E-1,1.927420445E0
1.229174525E1,5.800195268E-1,-1.803340949E0,1.258917590E-1,1.898502032E0
1.230169225E1,4.744290447E-1,-1.932652123E0,4.765718300E-2,1.990602510E0
1.231163925E1,2.812799983E-1,-2.100746124E0,1.389663890E-2,2.119539061E0
1.232158525E1,7.462595771E-2,-2.256008411E0,9.058579579E-3,2.257260517E0
1.233153225E1,-1.786175461E-1,-2.473357603E0,2.338316157E-2,2.479909037E0
1.234147925E1,-3.789273486E-1,-2.717036222E0,-7.911757864E-2,2.744472875E0
1.235142525E1,-5.178194779E-1,-2.896564454E0,-1.573649454E-1,2.946690749E0
1.236137225E1,-6.397663763E-1,-3.005229110E0,-1.791387340E-1,3.077790393E0
1.237131925E1,-6.824051499E-1,-3.089569933E0,-1.142790791E-1,3.166098366E0
1.238126525E1,-6.474101490E-1,-3.171991700E0,-1.170858157E-1,3.239503100E0
1.239121225E1,-5.591958377E-1,-3.204681144E0,-1.172928071E-1,3.255217170E0
1.240115825E1,-5.191456264E-1,-3.227860676E0,-6.011537030E-2,3.269894583E0
1.241110525E1,-5.378023374E-1,-3.344382235E0,-2.354673743E-2,3.387429459E0
1.242105225E1,-6.303406647E-1,-3.588270185E0,-9.544643998E-2,3.644464610E0
1.243099825E1,-8.078200319E-1,-3.730607786E0,-3.060268950E-1,3.829315881E0
1.244094525E1,-9.514615622E-1,-3.731395406E0,-5.854619689E-1,3.895042554E0
1.245089225E1,-1.119681863E0,-3.668610343E0,-7.540559073E-1,3.909090641E0
1.246083825E1,-1.026110626E0,-3.630346749E0,-9.485622203E-1,3.889998820E0
1.247078525E1,-7.623114449E-1,-3.610598947E0,-1.039112129E0,3.833705455E0
1.248073225E1,-4.861693767E-1,-3.495197715E0,-1.091190867E0,3.693706165E0
1.249067825E1,-2.557536860E-1,-3.216902994E0,-1.071301270E0,3.400229585E0
1.250062525E1,-2.608559664E-1,-2.990761929E0,-9.014536889E-1,3.134536888E0
1.251057225E1,-1.841966669E-1,-2.821621276E0,-8.059824713E-1,2.940252162E0
1.252051825E1,-8.596223792E-2,-2.594247617E0,-7.925878890E-1,2.713983376E0
1.253046525E1,-3.494504381E-2,-2.393166549E0,-8.730581479E-1,2.547684795E0
1.254041225E1,5.291114381E-2,-2.209734131E0,-9.240190443E-1,2.395732813E0
1.255035825E1,1.491145059E-1,-2.037635956E0,-8.816840335E-1,2.225210588E0
1.256030525E1,2.467004786E-1,-1.833627772E0,-7.215125708E-1,1.985858082E0
1.257025125E1,3.332565013E-1,-1.719166771E0,-5.139948142E-1,1.825043822E0
1.258019825E1,3.998878625E-1,-1.720916258E0,-3.427309640E-1,1.799702082E0
1.259014525E1,5.394354647E-1,-1.699569243E0,-2.621634221E-1,1.802291845E0
1.260009125E1,6.850746962E-1,-1.658116577E0,-2.880150589E-1,1.817038964E0
1.261003825E1,6.723002842E-1,-1.693561814E0,-3.468604139E-1,1.854845394E0
1.261998525E1,6.560473636E-1,-1.771534435E0,-3.705463151E-1,1.925107002E0
1.262993125E1,6.698254502E-1,-1.877072584E0,-3.818512487E-1,2.029255527E0
1.263987825E1,6.659186330E-1,-1.963067585E0,-4.184103799E-1,2.114745662E0
1.264982525E1,7.236163259E-1,-2.030271973E0,-3.175809932E-1,2.178642366E0
1.265977125E1,8.919360298E-1,-1.994570628E0,-1.539560187E-1,2.190334296E0
1.266971825E1,1.067205734E0,-1.995632483E0,-3.671583652E-2,2.263365887E0
1.267966525E1,1.299071224E0,-2.080455117E0,1.120782602E-1,2.455288389E0
1.268961125E1,1.490076370E0,-2.230454324E0,2.294049811E-1,2.692188836E0
1.269955825E1,1.390816084E0,-2.400598944E0,1.218863797E-1,2.777066971E0
1.270950425E1,9.545363206E-1,-2.649454104E0,-4.751447439E-2,2.816558940E0
1.271945125E1,4.184267521E-1,-3.029416702E0,-2.892933333E-1,3.071829607E0
1.272939796E1,3.290754497E-2,-3.216998888E0,-8.469253331E-1,3.326777310E0
1.273934396E1,-1.822237980E-1,-3.155070443E0,-1.183469431E0,3.374651820E0
1.274929096E1,-2.817305080E-1,-3.001467596E0,-1.294464787E0,3.280825947E0
1.275923796E1,-5.279827427E-2,-2.675345575E0,-1.154816321E0,2.914423157E0
1.276918396E1,3.715598568E-1,-2.404055818E0,-6.985803026E-1,2.530919901E0
1.277913096E1,6.126633623E-1,-2.141840941E0,-2.344675004E-1,2.240047772E0
1.278907796E1,7.195849630E-1,-1.786676384E0,1.439526021E-1,1.931511681E0
1.279902396E1,8.542784992E-1,-1.400116957E0,3.279527843E-1,1.672624368E0
1.280897096E1,8.550801525E-1,-1.004731743E0,2.799430507E-1,1.348709033E0
1.281891796E1,1.001647045E0,-6.251819587E-1,2.761616564E-1,1.212606508E0
1.282886396E1,1.247834997E0,-2.011529893E-1,3.655211449E-1,1.315735692E0
1.283881096E1,1.408424681E0,9.496579885E-2,2.933961783E-1,1.441790520E0
1.284875696E1,1.533459787E0,1.838844073E-1,2.835741717E-1,1.570263259E0
1.285870396E1,1.606173422E0,1.077326095E-1,3.384480979E-1,1.644976137E0
1.286865096E1,1.619041682E0,1.778307849E-1,3.446150100E-1,1.664836106E0
1.287859696E1,1.506065874E0,5.513725555E-1,4.782070769E-1,1.673597359E0
1.288854396E1,1.322480844E0,8.994912171E-1,7.289049862E-1,1.757652557E0
1.289849096E1,1.218690135E0,1.173819187E0,1.043916713E0,1.988169820E0
1.290843696E1,1.116412100E0,1.352736969E0,1.393578309E0,2.240163786E0
1.291838396E1,8.778050637E-1,1.315861503E0,1.673183683E0,2.302515334E0
1.292833096E1,6.206459811E-1,1.210188283E0,1.669046485E0,2.153014929E0
1.293827696E1,3.146240562E-1,1.325685410E0,1.397855839E0,1.952032544E0
1.294822396E1,1.598515470E-2,1.423698778E0,1.039859915E0,1.763088874E0
1.295817096E1,-1.542071201E-1,1.274203600E0,8.497605018E-1,1.539307494E0
1.296811696E1,-3.790606285E-1,1.165460007E0,1.145924752E0,1.677834177E0
1.297806396E1,-6.212116992E-1,1.167738667E0,1.555326327E0,2.041704570E0
1.298801096E1,-9.513624519E-1,9.447129983E-1,1.707735465E0,2.171159502E0
1.299795696E1,-1.385176298E0,7.783848560E-1,1.405113403E0,2.121070493E0
1.300790396E1,-1.648590001E0,8.703656512E-1,8.921316192E-1,2.066708539E0
1.301784996E1,-1.863201673E0,1.120341722E0,6.180506945E-1,2.260237312E0
1.302779696E1,-1.750052934E0,1.357029995E0,7.321178851E-1,2.332426264E0
1.303774396E1,-1.506672522E0,1.312863636E0,1.039913855E0,2.252796893E0
1.304768996E1,-1.413407825E0,1.231095588E0,1.279730973E0,2.269587934E0
1.305763696E1,-1.342196778E0,1.225498633E0,1.224439410E0,2.191481453E0
1.306758396E1,-1.355346728E0,1.176213037E0,1.032120686E0,2.070196843E0
1.307752996E1,-1.348670961E0,1.291089774E0,7.781968680E-1,2.022725027E0
1.308747696E1,-1.252968560E0,1.595727371E0,4.637754178E-1,2.081192853E0
1.309742396E1,-1.042381526E0,2.486279365E0,1.764724767E-1,2.701719242E0
1.310736996E1,7.691732986E-1,9.224264528E0,1.344871294E-1,9.257255016E0
1.311731696E1,2.842847253E0,1.758676173E1,2.592686995E0,1.800272187E1
1.312726396E1,1.550616248E0,1.468425417E1,7.219381165E0,1.643627682E1
1.313720996E1,-4.687227470E-1,6.587594776E0,8.500323681E0,1.076436754E1
1.314715696E1,-9.670674884E-1,8.500699657E-1,4.361728177E0,4.547802894E0
1.315710396E1,-2.332951776E0,8.653721291E-1,-1.356093271E0,2.833817543E0
1.316704996E1,-4.179709616E0,2.105908631E0,-4.610908442E0,6.570030464E0
1.317699696E1,-3.710319117E0,1.809202783E0,-3.587865265E0,5.469228449E0
1.318694296E1,-2.640950498E0,1.919147978E0,-4.768380976E-1,3.299260988E0
1.319688996E1,-1.401255264E0,3.202574392E0,1.855970860E0,3.957856350E0
1.320683696E1,-2.244665690E-1,5.090175472E0,2.952132298E0,5.888578495E0
1.321678296E1,5.656526256E-1,6.310396993E0,3.372270238E0,7.177275226E0
1.322672996E1,1.219282312E0,6.470253437E0,3.821823181E0,7.612960089E0
1.323667696E1,1.372447933E0,5.872161629E0,4.505019459E0,7.527356498E0
1.324662296E1,9.269707918E-1,4.990919572E0,4.712239227E0,6.926308653E0
1.325656996E1,5.371426253E-1,4.092303098E0,4.105613407E0,5.821643092E0
1.326651696E1,1.179292948E-1,3.403321000E0,2.688113262E0,4.338485226E0
1.327646296E1,-3.313108037E-1,2.845162166E0,1.489144032E0,3.228353225E0
1.328640996E1,-7.741557111E-1,2.265635267E0,7.882894546E-1,2.520678578E0
1.329635696E1,-1.192994107E0,1.797838719E0,5.936526024E-1,2.237829844E0
1.330630296E1,-1.549002855E0,1.516382409E0,6.120511588E-1,2.252428040E0
1.331624996E1,-1.670955893E0,1.403560967E0,8.019351017E-1,2.324903631E0
1.332619696E1,-1.471781894E0,1.508174672E0,1.275374505E0,2.463191611E0
1.333614296E1,-1.248847150E0,1.596023240E0,1.759350884E0,2.683696130E0
1.334608996E1,-1.118591650E0,1.531865251E0,2.164515274E0,2.878017512E0
1.335603596E1,-1.071019873E0,1.217780893E0,2.366967514E0,2.869252356E0
1.336598296E1,-9.502945311E-1,7.665144235E-1,2.375467904E0,2.670852265E0
1.337592996E1,-8.080151828E-1,3.920505470E-1,2.157882192E0,2.337316350E0
1.338587596E1,-5.418338464E-1,1.711433244E-1,1.597678002E0,1.695714880E0
1.339582296E1,-3.019040233E-1,-1.202082288E-1,1.070773705E0,1.118996151E0
1.340576996E1,-1.038102973E-1,-4.984692872E-1,6.847317570E-1,8.532911503E-1
1.341571596E1,-2.419110060E-2,-8.490250683E-1,3.498038292E-1,9.185812402E-1
1.342566296E1,2.509215653E-2,-1.101763948E0,1.258203864E-1,1.109208810E0
1.343560996E1,1.332545364E-1,-1.300022566E0,-5.058133900E-2,1.307812645E0
1.344555596E1,2.678437363E-1,-1.476994395E0,-2.468437902E-1,1.521244414E0
1.345550296E1,3.493302047E-1,-1.601814907E0,-4.391188788E-1,1.697253069E0
1.346544996E1,5.259322338E-1,-1.633084062E0,-4.792320208E-1,1.781356674E0
1.347539596E1,7.772829482E-1,-1.607042318E0,-3.534460598E-1,1.819801613E0
1.348534296E1,8.965129378E-1,-1.623512170E0,-1.889206141E-1,1.864193717E0
1.349528996E1,8.424997949E-1,-1.753415083E0,-7.768661879E-2,1.946870712E0
1.350523596E1,6.939837333E-1,-1.984449683E0,6.627530236E-2,2.103341718E0
1.351518296E1,5.820648097E-1,-2.221427393E0,6.999354679E-2,2.297485191E0
1.352512896E1,4.050737581E-1,-2.385750525E0,-1.293135130E-1,2.423347334E0
1.353507596E1,2.472727931E-1,-2.510621324E0,-3.585114662E-1,2.548115723E0
1.354502296E1,2.271161251E-1,-2.497791948E0,-5.193286443E-1,2.561298223E0
1.355496896E1,3.316409521E-1,-2.459418426E0,-5.954336643E-1,2.552110100E0
1.356491596E1,4.468056651E-1,-2.465921114E0,-6.388831544E-1,2.586227741E0
1.357486296E1,5.941040440E-1,-2.411307535E0,-5.188819170E-1,2.537045937E0
1.358480896E1,6.963028121E-1,-2.345425787E0,-3.395197463E-1,2.470047244E0
1.359475596E1,7.532339349E-1,-2.240471190E0,-2.588737786E-1,2.377832657E0
1.360470296E1,7.578052881E-1,-2.178142210E0,-2.174438985E-1,2.316431348E0
1.361464896E1,7.827851781E-1,-2.099847407E0,-2.037731266E-1,2.250252265E0
1.362459596E1,8.334837538E-1,-1.906793981E0,-2.221508889E-1,2.092823326E0
1.363454296E1,8.424852499E-1,-1.745376331E0,-2.215720510E-1,1.950695800E0
1.364448896E1,8.166490352E-1,-1.735270588E0,-1.237527379E-1,1.921820595E0
1.365443596E1,7.769093111E-1,-1.696817544E0,8.279313840E-2,1.868055823E0
1.366438296E1,7.114166951E-1,-1.595840222E0,2.534757387E-1,1.765522495E0
1.367432896E1,5.675129172E-1,-1.629430137E0,3.451541233E-1,1.759614973E0
1.368427596E1,3.725217238E-1,-1.711545510E0,2.966924000E-1,1.776566027E0
1.369422196E1,1.546044749E-1,-1.824028983E0,9.914772749E-2,1.833252450E0
1.370416896E1,-3.013537546E-2,-1.892033270E0,-1.548561975E-2,1.892336609E0
1.371411596E1,-8.592015624E-2,-1.841702777E0,-4.622107029E-2,1.844285167E0
1.372406196E1,-1.114865220E-1,-1.774964996E0,3.928042531E-2,1.778896549E0
1.373400896E1,-1.540606838E-1,-1.845208182E0,1.008445895E-1,1.854372552E0
1.374395596E1,-1.320251593E-1,-1.973383242E0,1.089851562E-1,1.980795252E0
1.375390196E1,-1.318754614E-1,-2.036555976E0,6.465142094E-2,2.041845044E0
1.376384896E1,-1.727451691E-1,-2.114227465E0,-8.109496079E-2,2.122822428E0
1.377379596E1,-6.638167600E-2,-2.230056714E0,-2.357996424E-1,2.243470736E0
1.378374196E1,-2.986757755E-2,-2.289770234E0,-3.050048018E-1,2.310187812E0
1.379368896E1,-1.325227574E-1,-2.348844069E0,-3.108730674E-1,2.373030300E0
1.380363596E1,-2.229411949E-1,-2.526114691E0,-3.547515969E-1,2.560626272E0
1.381358196E1,-4.373310927E-1,-2.718907916E0,-4.651692478E-1,2.792866121E0
1.382352896E1,-5.539964935E-1,-2.791361935E0,-5.889139458E-1,2.906102751E0
1.383347596E1,-5.482437104E-1,-2.748296022E0,-7.517693536E-1,2.901527072E0
1.384342196E1,-5.349284309E-1,-2.701478536E0,-8.106392670E-1,2.870761349E0
1.385336896E1,-4.551414192E-1,-2.647220467E0,-7.115197523E-1,2.778702984E0
1.386331496E1,-3.669858724E-1,-2.616772846E0,-7.318936443E-1,2.741869265E0
1.387326196E1,-3.611594144E-1,-2.562243467E0,-7.713869814E-1,2.700104735E0
1.388320896E1,-2.995534426E-1,-2.462435589E0,-8.484170309E-1,2.621666026E0
1.389315496E1,-1.782988545E-1,-2.334561076E0,-8.648920727E-1,2.495997635E0
1.390310196E1,-1.471700326E-1,-2.171326695E0,-8.261916912E-1,2.327855525E0
1.391304896E1,-1.159257372E-1,-2.009080494E0,-7.653396448E-1,2.153041565E0
1.392299496E1,-1.200009542E-1,-1.930480467E0,-7.011430641E-1,2.057366438E0
1.393294196E1,1.395379543E-2,-1.884216712E0,-6.726648581E-1,2.000736199E0
1.394288896E1,1.944360003E-1,-1.773504946E0,-6.973740220E-1,1.915582334E0
1.395283496E1,2.629495803E-1,-1.598309501E0,-7.765149164E-1,1.796304863E0
1.396278196E1,2.716911859E-1,-1.450123515E0,-7.413650373E-1,1.651150032E0
1.397272896E1,4.430397293E-1,-1.350165364E0,-5.006631625E-1,1.506616843E0
1.398267496E1,4.635561472E-1,-1.336958258E0,-3.044118941E-1,1.447414345E0
1.399262196E1,3.716730005E-1,-1.362590112E0,-2.038047016E-1,1.426999996E0
1.400256896E1,2.522193548E-1,-1.460963084E0,-1.945532370E-1,1.495285490E0
1.401251496E1,1.391078825E-1,-1.555365211E0,-2.965181164E-1,1.589476308E0
1.402246196E1,7.205728501E-2,-1.554198107E0,-4.274747336E-1,1.613523676E0
1.403240796E1,1.572354113E-1,-1.480444837E0,-4.947188830E-1,1.568816963E0
1.404235496E1,2.821787336E-1,-1.455832736E0,-4.066305792E-1,1.537667787E0
1.405230196E1,3.497681612E-1,-1.488496453E0,-2.684696442E-1,1.552428873E0
1.406224796E1,3.230212426E-1,-1.554907374E0,-1.813461310E-1,1.598426127E0
1.407219496E1,1.617956731E-1,-1.631273180E0,-1.264682579E-1,1.644148487E0
1.408214196E1,-5.062226951E-2,-1.711722681E0,-6.167995730E-2,1.713581503E0
1.409208796E1,-8.584004939E-2,-1.581930866E0,-1.513692105E-1,1.591473033E0
1.410203496E1,5.746175766E-2,-1.385579025E0,-3.679232176E-1,1.434746871E0
1.411198196E1,2.054275963E-1,-1.324649869E0,-3.567806538E-1,1.387151833E0
1.412192796E1,3.808990297E-1,-1.336937208E0,-1.634741163E-1,1.399717455E0
1.413187496E1,4.460992849E-1,-1.422512378E0,-6.137968451E-3,1.490833228E0
1.414182196E1,3.187416655E-1,-1.560896677E0,9.451088548E-2,1.595909456E0
1.415176796E1,6.585398306E-2,-1.627167850E0,6.487887762E-2,1.629791774E0
1.416171496E1,-3.082211724E-2,-1.505407185E0,-1.889072386E-1,1.517526520E0
1.417166196E1,2.350142151E-2,-1.358977702E0,-3.988263005E-1,1.416486897E0
1.418160796E1,1.308531032E-1,-1.278800097E0,-3.312840161E-1,1.327479311E0
1.419155496E1,2.248745767E-1,-1.264180888E0,-1.229295961E-1,1.289896732E0
1.420150196E1,2.804614247E-1,-1.283871971E0,1.338016896E-1,1.320942369E0
1.421144796E1,2.353293983E-1,-1.173207568E0,4.074145447E-1,1.264034230E0
1.422139496E1,6.283944190E-2,-9.589328420E-1,5.046223122E-1,1.085423728E0
1.423134096E1,7.588898370E-2,-7.057647765E-1,5.045005439E-1,8.708523735E-1
1.424128796E1,2.828137595E-1,-5.506358063E-1,4.464335994E-1,7.632079484E-1
1.425123496E1,4.200847301E-1,-5.667741215E-1,3.234163682E-1,7.760813311E-1
1.426118096E1,4.664452565E-1,-7.248237759E-1,3.307692419E-1,9.232274773E-1
1.427112796E1,4.283640951E-1,-9.457304138E-1,4.432546145E-1,1.128882840E0
1.428107496E1,2.440765223E-1,-1.111036463E0,5.111530674E-1,1.247097762E0
1.429102096E1,1.205960819E-2,-1.082859900E0,4.209754072E-1,1.161874043E0
1.430096796E1,-1.116019862E-1,-8.449875659E-1,2.617954861E-1,8.916254070E-1
1.431091496E1,-4.899762064E-2,-5.032371068E-1,-6.644834340E-2,5.099644447E-1
1.432086096E1,3.977542135E-1,-1.505658031E-2,-1.367546797E-2,3.982739427E-1
1.433080796E1,7.976221955E-1,4.077935904E-1,3.968971579E-1,9.798082124E-1
1.434075496E1,7.899974263E-1,5.395225883E-1,8.942585438E-1,1.309533848E0
1.435070096E1,3.691449568E-1,2.475559080E-1,1.333181541E0,1.405320230E0
1.436064796E1,-3.437472832E-1,-3.366429162E-1,1.581560737E0,1.653125831E0
1.437059496E1,-1.179167927E0,-3.932679373E-1,9.839770514E-1,1.585341449E0
1.438054096E1,-1.421723881E0,6.166789377E-1,-2.241609058E-1,1.565835182E0
1.439048796E1,-1.063196006E0,1.636456152E0,-6.443792447E-1,2.055139678E0
1.440043496E1,-3.817249489E-1,2.125692685E0,5.449347711E-1,2.227383495E0
1.441038096E1,2.009682173E-1,2.526183103E0,1.940938797E0,3.192057755E0
1.442032796E1,4.669793996E-1,2.763241505E0,2.524131900E0,3.771579937E0
1.443027396E1,4.294613251E-1,2.441437068E0,2.805361046E0,3.743675011E0
1.444022096E1,1.474129844E-1,2.171326695E0,2.665638612E0,3.441223534E0
1.445016796E1,6.037600994E-2,2.608695502E0,1.577187020E0,3.049009082E0
1.446011396E1,3.085020214E-1,3.119072644E0,5.079277432E-1,3.175181609E0
1.447006096E1,8.255713016E-1,3.350682610E0,3.560498250E-1,3.469209335E0
1.448000796E1,1.204325280E0,3.155504891E0,7.352938002E-1,3.456626602E0
1.448995396E1,1.335994052E0,2.514614972E0,1.034066932E0,3.029432782E0
1.449990096E1,1.144533115E0,1.786586337E0,1.128584834E0,2.403237508E0
1.450984796E1,6.367202693E-1,1.227743379E0,6.570405132E-1,1.531165811E0
1.451979396E1,7.894148609E-2,7.953236550E-1,1.828865799E-1,8.198896118E-1
1.452974096E1,-3.822596768E-1,7.435717034E-1,-2.977744272E-1,8.875195480E-1
1.453968796E1,-1.621857006E-1,1.957381752E0,-5.749780574E-1,2.046520777E0
1.454963396E1,1.659861386E0,6.503069766E0,-1.031404987E-1,6.712353846E0
1.455958096E1,3.058921167E0,1.143359403E1,2.064546597E0,1.201442566E1
1.456952796E1,2.049883827E0,9.308763226E0,4.773086230E0,1.066008671E1
1.457947396E1,6.344989121E-1,4.294731950E0,6.064140921E0,7.457956590E0
1.458942096E1,-9.662845463E-2,3.370171380E-1,3.853617416E0,3.869532892E0
1.459936696E1,-1.312279207E0,-7.587563378E-1,1.071695226E-1,1.519629298E0
1.460931396E1,-2.722121546E0,-3.600352871E-1,-2.893275687E0,3.988811267E0
1.461926096E1,-3.279091641E0,-2.428067994E-1,-3.683956361E0,4.937907613E0
1.462920696E1,-2.948046556E0,-3.500792331E-1,-2.418502534E0,3.829189010E0
1.463915396E1,-2.723300929E0,-2.916006446E-1,-5.535635072E-1,2.794249710E0
1.464910096E1,-2.442266788E0,2.933483773E-1,7.796303129E-1,2.580415424E0
1.465904696E1,-2.311423643E0,1.123882796E0,1.528694891E0,2.990434729E0
1.466899396E1,-2.070356390E0,2.043124738E0,1.961423055E0,3.508263770E0
1.467894096E1,-1.640565282E0,3.124436295E0,2.000189510E0,4.056391831E0
1.468888696E1,-1.178068066E0,4.353492374E0,2.057027370E0,4.957025501E0
1.469883396E1,-4.028696501E-1,5.069604968E0,2.165083623E0,5.527276506E0
1.470878096E1,2.928346446E-1,5.598631219E0,2.240073579E0,6.037247162E0
1.471872696E1,1.047662878E0,5.874260779E0,2.418467743E0,6.438441071E0
1.472867396E1,1.767627910E0,5.844891384E0,2.614157971E0,6.642370482E0
1.473862125E1,2.317661745E0,5.555176467E0,2.607833915E0,6.559903907E0
1.474856725E1,2.414292539E0,5.180714344E0,2.262439764E0,6.147132930E0
1.475851425E1,2.130652878E0,4.765589515E0,1.804718553E0,5.523362578E0
1.476846125E1,1.734971210E0,4.283539794E0,1.550207674E0,4.874626355E0
1.477840725E1,1.253351260E0,3.911393169E0,1.464060646E0,4.360431112E0
1.478835425E1,7.197922468E-1,3.599979234E0,1.637519468E0,4.019878278E0
1.479830025E1,1.667418328E-1,3.317114915E0,1.862022143E0,3.807647654E0
1.480824725E1,-3.749474412E-1,2.976415785E0,2.113204787E0,3.669505550E0
1.481819425E1,-6.949529824E-1,2.677034835E0,2.362708402E0,3.637563216E0
1.482814025E1,-7.537914670E-1,2.379822618E0,2.378513134E0,3.448054813E0
1.483808725E1,-7.001409245E-1,2.076259739E0,2.132452944E0,3.057516537E0
1.484803425E1,-5.917513803E-1,1.767934304E0,1.850390423E0,2.626729167E0
1.485798025E1,-5.214046982E-1,1.354860093E0,1.592529821E0,2.154915303E0
1.486792725E1,-4.742138672E-1,8.052387786E-1,1.373438451E0,1.661210842E0
1.487787425E1,-4.586631972E-1,2.734298372E-1,1.097398417E0,1.220417588E0
1.488782025E1,-5.156185859E-1,-3.844661236E-2,8.076289742E-1,9.589604935E-1
1.489776725E1,-4.402380359E-1,-1.914816946E-1,5.703586109E-1,7.455090292E-1
1.490771425E1,-2.193419413E-1,-3.063736349E-1,3.825656323E-1,5.369656920E-1
1.491766025E1,1.822811007E-2,-3.203829789E-1,4.819351155E-1,5.789982493E-1
1.492760725E1,2.949379612E-1,-2.959001023E-1,8.909468271E-1,9.840383733E-1
1.493755425E1,3.313017771E-1,-4.725795704E-1,1.221176225E0,1.350690079E0
1.494750025E1,1.842428416E-1,-8.130272698E-1,1.322382318E0,1.563219038E0
1.495744725E1,-1.487683872E-1,-1.089823349E0,1.188595028E0,1.619445925E0
1.496739425E1,-4.509715139E-1,-1.329822900E0,7.241061763E-1,1.579915823E0
1.497734025E1,-5.365831929E-1,-1.535736693E0,1.789926267E-1,1.636596185E0
1.498728725E1,-4.950220612E-1,-1.634041836E0,-6.374809921E-2,1.708567641E0
1.499723325E1,-4.205265238E-1,-1.709500739E0,1.815845512E-2,1.760558168E0
1.500718025E1,-3.190530663E-1,-1.809694533E0,2.415823194E-1,1.853416084E0
1.501712725E1,-1.305633554E-1,-1.792335320E0,5.707894045E-1,1.885553826E0
1.502707325E1,1.587174795E-1,-1.687830958E0,7.507205093E-1,1.854061990E0
1.503702025E1,4.669525755E-1,-1.620247085E0,7.067693281E-1,1.828323879E0
1.504696725E1,6.839207482E-1,-1.662721260E0,5.466421580E-1,1.879150666E0
1.505691325E1,7.358142755E-1,-1.827477086E0,3.969984609E-1,2.009652439E0
1.506686025E1,6.731364360E-1,-2.004702099E0,2.312632263E-1,2.127304832E0
1.507680725E1,7.181605813E-1,-2.207529146E0,-1.453966817E-2,2.321454491E0
1.508675325E1,8.106122967E-1,-2.453884621E0,-1.988029568E-1,2.591942253E0
1.509670025E1,7.830038640E-1,-2.689834975E0,-2.498971331E-1,2.812606588E0
1.510664725E1,5.941757090E-1,-2.990347946E0,-3.062690429E-1,3.064151813E0
1.511659325E1,3.133131105E-1,-3.334665332E0,-5.250168157E-1,3.390250823E0
1.512654025E1,3.740957212E-2,-3.601231123E0,-7.128293093E-1,3.671292784E0
1.513648725E1,-1.395834895E-1,-3.832328873E0,-7.712992731E-1,3.911665977E0
1.514643325E1,-2.352375787E-1,-4.037843301E0,-8.326984727E-1,4.129515951E0
1.515638025E1,-2.710920473E-1,-4.060746260E0,-8.341252664E-1,4.154385158E0
1.516632725E1,-2.403071147E-1,-3.866264359E0,-7.662401891E-1,3.948781031E0
1.517627325E1,-1.999414096E-1,-3.773491850E0,-6.311310621E-1,3.831128258E0
1.518622025E1,-5.345378369E-2,-3.815827446E0,-5.556410229E-1,3.856440503E0
1.519616625E1,1.138412322E-1,-3.813565743E0,-4.337068422E-1,3.839836602E0
1.520611325E1,1.352124766E-1,-3.775641287E0,-1.844059789E-1,3.782559333E0
1.521606025E1,-3.673396289E-2,-3.790580338E0,-5.702906370E-2,3.791187281E0
1.522600625E1,-3.480677909E-1,-3.921272040E0,-7.236046314E-2,3.937354649E0
1.523595325E1,-5.474608048E-1,-3.981528182E0,-2.276424842E-1,4.025431790E0
1.524590025E1,-6.985659769E-1,-3.899858952E0,-4.066995764E-1,3.982750157E0
1.525584625E1,-7.178097484E-1,-3.754676680E0,-5.301704784E-1,3.859265285E0
1.526579325E1,-6.909920785E-1,-3.673158308E0,-4.307257855E-1,3.762324641E0
1.527574025E1,-5.091483860E-1,-3.589550725E0,-3.322726341E-1,3.640674607E0
1.528568625E1,-2.451737523E-1,-3.468457228E0,-2.985600007E-1,3.489905985E0
1.529563325E1,-2.601163119E-2,-3.303202050E0,-3.095480883E-1,3.317776425E0
1.530558025E1,2.121732001E-1,-3.117307954E0,-3.422888415E-1,3.143213006E0
1.531552625E1,2.687166525E-1,-3.038940062E0,-3.619694730E-1,3.072195833E0
1.532547325E1,2.662731742E-1,-3.007565072E0,-4.062506564E-1,3.046537159E0
1.533542025E1,2.330319725E-1,-2.973978081E0,-5.435138246E-1,3.032203292E0
1.534536625E1,3.083850771E-1,-2.921078321E0,-6.389603376E-1,3.006005693E0
1.535531325E1,3.602928935E-1,-2.803300195E0,-6.617154352E-1,2.902786638E0
1.536526025E1,3.251569381E-1,-2.732077600E0,-6.153422642E-1,2.819329911E0
1.537520625E1,2.635781377E-1,-2.707814578E0,-5.776954778E-1,2.781270445E0
1.538515325E1,1.264872614E-1,-2.791666574E0,-6.259912133E-1,2.863785308E0
1.539510025E1,-5.170398613E-2,-2.920915768E0,-7.866844670E-1,3.025441237E0
1.540504625E1,-2.437327243E-1,-3.011649937E0,-9.359847864E-1,3.163148511E0
1.541499325E1,-2.561867272E-1,-3.021850405E0,-9.391106348E-1,3.174766179E0
1.542494025E1,-3.853520681E-2,-2.926181186E0,-7.979133868E-1,3.033263435E0
1.543488625E1,1.450638655E-1,-2.710548736E0,-7.088485980E-1,2.805456168E0
1.544483325E1,2.827660865E-1,-2.455134755E0,-6.081934583E-1,2.545101689E0
1.545477925E1,4.064943391E-1,-2.183009432E0,-3.621660491E-1,2.249873791E0
1.546472625E1,3.920064005E-1,-1.881884258E0,-1.904987776E-1,1.931695411E0
1.547467325E1,2.655004281E-1,-1.610237237E0,-2.433096600E-1,1.650016371E0
1.548461925E1,1.606747618E-1,-1.385980144E0,-3.778576005E-1,1.445521949E0
1.549456625E1,1.950365093E-1,-1.221254139E0,-3.341496634E-1,1.281076465E0
1.550451325E1,2.142370114E-1,-1.153406557E0,-1.804567695E-1,1.186932529E0
1.551445925E1,3.327954483E-1,-1.050012581E0,-1.582747722E-1,1.112802828E0
1.552440625E1,3.554089701E-1,-9.862831932E-1,-2.255510813E-1,1.072354122E0
1.553435325E1,2.312649987E-1,-9.820936632E-1,-1.910794244E-1,1.026889872E0
1.554429925E1,1.858268889E-1,-9.239776021E-1,-3.392441232E-2,9.430891303E-1
1.555424625E1,1.267732085E-1,-8.354414016E-1,4.470251184E-2,8.461867976E-1
1.556419325E1,-1.682846937E-3,-8.576304156E-1,1.254216428E-1,8.667544924E-1
1.557413925E1,-8.243463099E-2,-8.750749987E-1,2.228759801E-1,9.067664663E-1
1.558408625E1,-1.933127867E-1,-8.464148712E-1,9.307078935E-2,8.731839094E-1
1.559403325E1,-4.930487355E-2,-7.594772995E-1,-1.985133369E-2,7.613348898E-1
1.560397925E1,1.800646771E-1,-7.098537344E-1,1.540730361E-1,7.483676320E-1
1.561392625E1,2.819813901E-1,-8.127430952E-1,4.864339632E-1,9.882726565E-1
1.562387325E1,2.677139281E-1,-9.195138377E-1,7.670043471E-1,1.226976819E0
1.563381925E1,1.560873653E-1,-9.107570475E-1,8.621215157E-1,1.263762309E0
1.564376625E1,-2.790320545E-2,-8.364015144E-1,9.550526297E-1,1.269831330E0
1.565371225E1,-2.264497618E-1,-7.590691638E-1,9.085232650E-1,1.205354725E0
1.566365925E1,-3.333813393E-1,-7.573810726E-1,8.232482028E-1,1.167264670E0
1.567360625E1,-3.642686347E-1,-8.809502810E-1,8.928193979E-1,1.306097819E0
1.568355225E1,-4.209941914E-1,-1.061801738E0,1.066700242E0,1.562852663E0
1.569349925E1,-6.296691120E-1,-1.090362462E0,9.102107714E-1,1.553659274E0
1.570344625E1,-7.833196136E-1,-8.222378039E-1,4.888897938E-1,1.236397126E0
1.571339225E1,-6.128200677E-1,-2.496632445E-1,-1.228850842E-2,6.618392391E-1
1.572333925E1,-3.967671670E-1,3.051977599E-1,-2.501972415E-1,5.596146147E-1
1.573328637E1,-2.772199841E-1,6.507839924E-1,2.763832659E-3,7.073742737E-1
1.574323237E1,-2.261462913E-1,7.600421405E-1,4.176201287E-1,8.962213857E-1
1.575317937E1,-2.964830879E-1,7.381829095E-1,6.333870640E-1,1.016855645E0
1.576312637E1,-2.499737134E-1,1.009259827E0,6.833592694E-1,1.244215475E0
1.577307237E1,-5.852945924E-2,1.738605840E0,4.846675193E-1,1.805845665E0
1.578301937E1,2.018224955E-1,2.390118980E0,4.038481817E-1,2.432384511E0
1.579296637E1,4.839146903E-1,2.580979115E0,8.353893614E-1,2.755630963E0
1.580291237E1,5.736577561E-1,2.533137197E0,1.358482151E0,2.931098946E0
1.581285938E1,4.192038471E-1,2.358310711E0,1.574237976E0,2.866284439E0
1.582280637E1,1.024236301E-1,2.088430719E0,1.464476968E0,2.552787938E0
1.583275237E1,-8.413061589E-2,2.058723940E0,9.360105872E-1,2.263081536E0
1.584269938E1,9.396300137E-2,2.213058858E0,4.144246253E-1,2.253487591E0
1.585264537E1,3.932885487E-1,2.264747660E0,2.245591012E-1,2.309585381E0
1.586259237E1,5.419418737E-1,2.306364048E0,3.713797626E-1,2.398111558E0
1.587253937E1,5.889365306E-1,2.134907312E0,7.362144443E-1,2.333813870E0
1.588248537E1,3.247121112E-1,1.799561893E0,1.021441332E0,2.094565195E0
1.589243237E1,-7.896677529E-2,1.334878403E0,1.033867542E0,1.690271634E0
1.590237937E1,-3.753348193E-1,8.640711236E-1,8.358150387E-1,1.259397440E0
1.591232537E1,-5.810958530E-1,6.682490408E-1,4.026170504E-1,9.727947678E-1
1.592227237E1,-7.052081215E-1,8.225886369E-1,-3.344782770E-2,1.084015368E0
1.593221937E1,-6.621085873E-1,8.784500116E-1,9.958948463E-2,1.104527170E0
1.594216537E1,-6.327193120E-1,6.608686852E-1,5.417661649E-1,1.063292869E0
1.595211238E1,-6.279029605E-1,4.525230360E-1,6.494014183E-1,1.010327387E0
1.596205937E1,-7.599499007E-1,4.460285336E-1,5.841298270E-1,1.057200529E0
1.597200537E1,-7.483386460E-1,7.267919487E-1,7.015439638E-1,1.257140087E0
1.598195237E1,-6.806416297E-1,1.097124767E0,7.200805146E-1,1.478334107E0
1.599189937E1,-2.435048108E-1,1.965219360E0,7.076902646E-1,2.102904476E0
1.600184537E1,1.703588327E0,5.476049021E0,1.146398961E0,5.848380686E0
1.601179237E1,3.869831453E0,9.761428349E0,2.617166948E0,1.082176703E1
1.602173937E1,3.481380452E0,9.050848975E0,4.413750270E0,1.065453277E1
1.603168537E1,2.057535639E0,5.192004733E0,4.808301671E0,7.369540760E0
1.604163237E1,5.673946573E-1,1.717303264E0,3.897555149E0,4.296743340E0
1.605157937E1,-6.413302141E-1,6.838570136E-1,1.845258468E0,2.069768990E0
1.606152538E1,-1.399023820E0,1.294133250E0,-1.655696999E0,2.524555619E0
1.607147237E1,-1.747507202E0,1.479252589E0,-2.617182151E0,3.477299535E0
1.608141837E1,-1.509134054E0,1.059552314E0,-1.972909326E0,2.700464387E0
1.609136538E1,-1.228944543E0,1.023312441E0,-5.823657221E-1,1.701946790E0
1.610131237E1,-7.370989819E-1,1.680276940E0,5.790982980E-1,1.924058300E0
1.611125837E1,-3.331436500E-2,2.717361912E0,1.420783941E0,3.066560388E0
1.612120537E1,5.576352158E-1,3.579831483E0,2.125980368E0,4.200707442E0
1.613115237E1,6.547114210E-1,3.905607934E0,2.619034549E0,4.747816587E0
1.614109837E1,5.449967515E-1,3.881335557E0,2.663928886E0,4.739019337E0
1.615104537E1,2.571947506E-1,3.854234882E0,1.983860868E0,4.342462390E0
1.616099237E1,-2.136718780E-3,3.800317706E0,1.387768807E0,4.045778231E0
1.617093837E1,-1.115429476E-2,3.736597089E0,1.049066502E0,3.881085254E0
1.618088537E1,1.353367299E-1,3.726963801E0,7.728165525E-1,3.808650763E0
1.619083237E1,2.399194443E-1,3.763102518E0,8.441578460E-1,3.864078722E0
1.620077838E1,2.478785464E-1,3.791252183E0,1.330847040E0,4.025691336E0
1.621072537E1,2.714102089E-1,3.674884406E0,1.845759575E0,4.121318637E0
1.622067237E1,2.790012105E-1,3.534600347E0,2.123034833E0,4.132616386E0
1.623061837E1,2.151892304E-1,3.340863381E0,2.212097576E0,4.012611397E0
