"Time (s)","Linear Acceleration x (m/s^2)","Linear Acceleration y (m/s^2)","Linear Acceleration z (m/s^2)","Absolute acceleration (m/s^2)"
2.204166667E-4,1.444747585E-1,-4.717592061E-2,4.495368630E-2,1.584908743E-1
1.016641667E-2,2.065908998E-1,-3.647610068E-2,4.982675582E-2,2.156223815E-1
2.011341669E-2,1.146001643E-1,1.668619931E-2,2.433845043E-2,1.183384429E-1
3.005941669E-2,-2.201827526E-2,2.467349589E-2,7.023383081E-3,3.380700748E-2
4.000641668E-2,-1.431626433E-1,2.584469318E-3,1.585501760E-2,1.440611103E-1
4.995241668E-2,-1.434216750E-1,-1.039868832E-2,4.892014503E-2,1.518917054E-1
5.989941666E-2,-7.635937393E-2,-4.036566854E-2,-8.651832640E-3,8.680435122E-2
6.984541667E-2,6.174075007E-3,-7.263294339E-2,-6.788325012E-3,7.321027950E-2
7.979241668E-2,1.444256419E-1,-3.444185436E-2,9.869807661E-3,1.488032946E-1
8.973841669E-2,2.619347960E-1,3.708304167E-2,6.256520748E-4,2.645475019E-1
9.968541667E-2,2.232999033E-1,3.295549214E-2,-8.536320895E-2,2.413209247E-1
1.096314167E-1,1.747159731E-1,1.828307390E-2,-1.307776558E-1,2.190039665E-1
1.195774167E-1,5.694427907E-2,-5.162506700E-3,-1.799369520E-1,1.888030961E-1
1.295244167E-1,1.351350009E-2,-7.768610716E-3,-1.578069949E-1,1.585749464E-1
1.394704167E-1,-5.372831047E-2,-1.252882898E-2,-1.480038455E-1,1.579520218E-1
1.494174167E-1,-6.205240667E-2,-4.338458598E-2,-1.246032885E-1,1.458036453E-1
1.593634167E-1,-1.919523954E-2,-6.012633383E-2,-7.133544624E-2,9.524903743E-2
1.693104167E-1,1.945251703E-2,-4.313374043E-2,-6.162088215E-2,7.769204013E-2
1.792564167E-1,3.612234414E-2,-4.094278872E-2,-6.861999929E-3,5.502928981E-2
1.892034167E-1,2.303218246E-2,-1.360120833E-2,4.011774659E-2,4.821729864E-2
1.991494167E-1,2.784444094E-2,-6.688045263E-3,3.435999334E-2,4.472864834E-2
2.090964167E-1,3.686961830E-2,-1.832517385E-2,1.768607318E-2,4.481046680E-2
2.190424167E-1,3.019852996E-2,-2.198202252E-2,-1.242182493E-2,3.936320948E-2
2.289894167E-1,3.889743268E-2,-2.001969695E-2,-3.797415733E-2,5.792957069E-2
2.389354167E-1,4.384476185E-2,-2.050852418E-2,-4.376757860E-2,6.525767114E-2
2.488824167E-1,4.936745703E-2,-3.428807259E-3,-6.887435317E-2,8.480907415E-2
2.588284167E-1,7.479407430E-2,6.513798237E-3,-9.411736786E-2,1.203937791E-1
2.687754167E-1,9.226964772E-2,-1.121612906E-2,-8.590524584E-2,1.265669811E-1
2.787214167E-1,8.987930596E-2,-2.682293236E-2,-8.193381697E-2,1.245428027E-1
2.886674167E-1,8.921623170E-2,-3.574402928E-2,-5.812044650E-2,1.123172201E-1
2.986144167E-1,4.939318478E-2,-1.079805315E-2,-5.335964352E-2,7.350874921E-2
3.085604167E-1,-1.839300156E-2,-2.896008968E-2,-1.128337204E-2,3.611514621E-2
3.185074167E-1,-5.312838614E-2,-2.978396237E-2,3.094346523E-3,6.098593943E-2
3.284534167E-1,-6.457021773E-2,-3.210530698E-2,-4.252182931E-2,8.371481184E-2
3.384004167E-1,-5.786638498E-2,-2.855546236E-2,-6.180740833E-2,8.935372777E-2
3.483464167E-1,-8.200135231E-3,-5.379438400E-5,2.026995778E-2,2.186587067E-2
3.582934167E-1,2.175515056E-2,-1.223646820E-2,1.359770000E-2,2.842384870E-2
3.682394167E-1,5.299039185E-2,-3.476695955E-2,-1.860700965E-2,6.605258445E-2
3.781864167E-1,7.190028727E-2,-4.893242419E-2,-1.564978033E-2,8.836825828E-2
3.881324167E-1,4.810445845E-2,-2.135520101E-2,-3.611708164E-2,6.383202268E-2
3.980794167E-1,9.494708776E-3,-3.724091649E-3,-4.759545833E-2,4.867592841E-2
4.080254167E-1,-4.622107029E-2,-3.115396500E-3,-5.322252631E-2,7.056011863E-2
4.179714167E-1,-2.562132955E-2,6.168812513E-3,-5.619934380E-2,6.207151536E-2
4.279184167E-1,-1.655405223E-2,-1.675987422E-2,-7.947681695E-2,8.289447788E-2
4.378644167E-1,-8.436479688E-2,-3.636734247E-2,-1.066964829E-1,1.407982316E-1
4.478114167E-1,-1.523421872E-1,-5.309271812E-4,-7.336501479E-2,1.690882884E-1
4.577574167E-1,-1.130898285E-1,2.523658276E-2,-2.605051517E-2,1.187637308E-1
4.677044167E-1,-3.770284653E-2,1.819887400E-2,1.479813337E-2,4.440369807E-2
4.776504167E-1,3.214097500E-2,-3.135569394E-2,3.574110568E-2,5.739031670E-2
4.875974167E-1,1.138406110E-1,-6.555898190E-2,3.399805069E-2,1.356964711E-1
4.975434167E-1,1.262004554E-1,-6.321424842E-2,1.204877257E-2,1.416607535E-1
5.074904167E-1,2.195044756E-3,-1.324569762E-2,-6.472166061E-2,6.609962239E-2
5.174364167E-1,-3.620747960E-1,7.629856288E-2,-1.550734216E-1,4.012074210E-1
5.273834167E-1,-7.014477772E-1,1.439093328E-1,-5.124710298E-1,8.805483726E-1
5.373294167E-1,-1.121900005E0,1.690856892E-1,-7.119408980E-1,1.339443703E0
5.472764167E-1,-1.901174807E0,3.597207069E-1,-2.831479096E-1,1.955514606E0
5.572224167E-1,-3.163186963E0,8.355852431E-1,3.638011864E-1,3.291854456E0
5.671684167E-1,-4.964884844E0,1.314373387E0,9.140297341E-1,5.216618566E0
5.771154167E-1,-6.533017450E0,1.758993911E0,1.559740975E0,6.943138231E0
5.870614167E-1,-7.214703392E0,1.943004618E0,2.204130160E0,7.790083552E0
5.970084167E-1,-7.175096108E0,2.015032960E0,2.960476275E0,8.019150938E0
6.069544167E-1,-6.398824435E0,2.173560916E0,3.685502365E0,7.697548239E0
6.169014167E-1,-4.918759083E0,2.236693304E0,4.130228723E0,6.801159986E0
6.268474167E-1,-3.298277525E0,2.036491072E0,4.317744544E0,5.802486403E0
6.367944167E-1,-1.865196012E0,1.575907064E0,4.105351452E0,4.776646290E0
6.467404167E-1,-5.459615421E-1,1.078542316E0,3.506955881E0,3.709456440E0
6.566874167E-1,6.910987902E-1,4.670568752E-1,2.768595800E0,2.891519042E0
6.666334167E-1,1.583049730E0,-1.907999092E-1,2.040292054E0,2.589448343E0
6.765804167E-1,2.171360901E0,-8.241872656E-1,1.298851953E0,2.661035364E0
6.865264167E-1,2.523936311E0,-1.367942069E0,6.373859748E-1,2.940710949E0
6.964734167E-1,2.718997378E0,-1.806478565E0,-3.163314432E-2,3.264553906E0
7.064194167E-1,2.684435071E0,-2.176709642E0,-6.744178534E-1,3.521235005E0
7.163664167E-1,2.610202622E0,-2.492595527E0,-1.259053465E0,3.822486863E0
7.263124167E-1,2.409917067E0,-2.708291126E0,-1.870756714E0,4.079494059E0
7.362584167E-1,2.145396340E0,-2.860651440E0,-2.451809590E0,4.335599426E0
7.462054167E-1,2.081109128E0,-2.958090026E0,-2.918804046E0,4.647658428E0
7.561514167E-1,2.247282903E0,-3.013597645E0,-3.239540489E0,4.962526956E0
7.660984167E-1,2.614821338E0,-3.013363171E0,-3.343451359E0,5.205412108E0
7.760444167E-1,3.026006606E0,-2.958699306E0,-3.279902357E0,5.354285857E0
7.859914167E-1,3.450778464E0,-2.837154404E0,-3.000802767E0,5.381647923E0
7.959374167E-1,4.004133225E0,-2.556436597E0,-2.421492800E0,5.332173885E0
8.058844167E-1,4.418105276E0,-2.330746937E0,-1.898147850E0,5.343687938E0
8.158304167E-1,4.619180498E0,-2.253650814E0,-1.705285627E0,5.415142614E0
8.257774167E-1,4.645039224E0,-2.243022330E0,-1.581266914E0,5.395177812E0
8.357234167E-1,4.421894272E0,-2.191649863E0,-1.414511048E0,5.133938019E0
8.456704167E-1,3.967752434E0,-2.190830668E0,-1.259449029E0,4.704148196E0
8.556164167E-1,3.460080507E0,-2.226148435E0,-1.154062030E0,4.273143238E0
8.655634167E-1,3.049394006E0,-2.226885769E0,-1.118941460E0,3.938255200E0
8.755094167E-1,2.825400331E0,-2.243839771E0,-1.098696645E0,3.771582992E0
8.854554167E-1,2.894183760E0,-2.234840321E0,-1.024120672E0,3.797319324E0
8.954024167E-1,3.022181650E0,-2.200487344E0,-9.605557367E-1,3.859843753E0
9.053484167E-1,2.984310988E0,-2.195041248E0,-7.663781834E-1,3.783074632E0
9.152954167E-1,2.977580843E0,-2.157530190E0,-5.498388308E-1,3.717962740E0
9.252414167E-1,3.129055011E0,-2.052217158E0,-3.703275561E-1,3.760282306E0
9.351884167E-1,3.047592479E0,-1.950831116E0,-2.871073517E-1,3.629875011E0
9.451344167E-1,2.530628741E0,-1.862172709E0,-2.224311532E-1,3.149800731E0
9.550814167E-1,1.884624263E0,-1.802887790E0,-1.135175523E-1,2.610574502E0
9.650274167E-1,1.333194405E0,-1.667977906E0,1.251976579E-2,2.135348768E0
9.749744167E-1,9.249020469E-1,-1.529115890E0,1.314775676E-1,1.791905565E0
9.849204167E-1,6.717129314E-1,-1.394147535E0,1.658257203E-1,1.556388056E0
9.948674167E-1,4.792781407E-1,-1.302083709E0,2.964234281E-1,1.418801033E0
1.004813417E0,5.402178222E-1,-1.007824920E0,6.215717416E-1,1.301498289E0
1.014760417E0,5.598960418E-1,-5.194906121E-1,1.088545732E0,1.329769110E0
1.024706417E0,1.053744274E-1,7.328139961E-2,1.387908994E0,1.393831163E0
1.034653417E0,-3.273181860E0,3.699828043E0,-5.878729221E-1,4.974740356E0
1.044599417E0,-1.038995725E1,1.088845110E1,-1.585324005E0,1.513350030E1
1.054545417E0,-1.527844472E1,1.278613804E1,-7.557257259E-1,1.993708405E1
1.064492417E0,-1.608536165E1,9.235157306E0,-3.636431654E-1,1.855152894E1
1.074438417E0,-1.412988550E1,1.171146424E0,1.952237664E-1,1.417968126E1
1.084385417E0,-1.374394120E1,-4.396330245E0,-2.062160933E-1,1.443142974E1
1.094331417E0,-1.029521950E1,-1.503425564E0,-4.567786396E-1,1.041443612E1
1.104278417E0,-6.638278441E0,1.965908162E0,1.443435178E0,7.072131269E0
1.114224417E0,-6.068891199E0,3.189105331E0,3.981830191E0,7.928228356E0
1.124171417E0,-5.695315515E0,3.989635931E0,4.797358899E0,8.447985919E0
1.134117417E0,-5.337087602E0,3.612412754E0,4.051027895E0,7.612151928E0
1.144064417E0,-5.303873663E0,1.898527188E0,2.678347535E0,6.237710063E0
1.154010417E0,-4.341487455E0,6.713948429E-1,1.434847080E0,4.621479255E0
1.163957417E0,-3.030152282E0,4.597841084E-1,6.271653342E-1,3.128347908E0
1.173903417E0,-2.191885505E0,3.701954091E-1,1.049642453E-1,2.225404278E0
1.183850417E0,-1.542589629E0,2.094478494E-1,-1.294914146E-1,1.562120095E0
1.193796417E0,-1.111248132E0,-3.348349571E-2,-1.317442006E-1,1.119531192E0
1.203743417E0,-6.438810620E-1,-2.185157114E-1,3.509601161E-2,6.808551007E-1
1.213689417E0,-5.431735897E-1,-4.827350146E-1,3.586746401E-1,8.103814782E-1
1.223635417E0,-7.859885752E-1,-7.825398874E-1,5.957178390E-1,1.258978340E0
1.233582417E0,-7.482772502E-1,-1.045338317E0,6.326900759E-1,1.432811143E0
1.243528417E0,-6.606374279E-1,-1.126816344E0,6.545979850E-1,1.461045997E0
1.253475417E0,-7.798264870E-1,-1.162431734E0,5.560519360E-1,1.506177494E0
1.263421417E0,-7.491946784E-1,-1.331678222E0,3.850885597E-1,1.575738795E0
1.273368417E0,-4.040788543E-1,-1.487580779E0,2.475143927E-1,1.561230178E0
1.283314417E0,-1.016070664E-2,-1.485375794E0,2.200229774E-1,1.501617328E0
1.293261417E0,1.176249290E-1,-1.455067921E0,1.202123219E-1,1.464755707E0
1.303207417E0,3.494705379E-2,-1.512473545E0,-4.132168829E-2,1.513441444E0
1.313154667E0,-5.689662427E-2,-1.626192534E0,-1.739499879E-1,1.636458976E0
1.323100667E0,1.441291881E-1,-1.675942984E0,-3.448067987E-1,1.717105074E0
1.333047667E0,4.799514475E-1,-1.702336730E0,-5.659993654E-1,1.857056547E0
1.342993667E0,6.670795977E-1,-1.751527601E0,-7.882505706E-1,2.033269065E0
1.352940667E0,7.979902777E-1,-1.765663830E0,-1.035329930E0,2.196876262E0
1.362886667E0,8.880818376E-1,-1.815551105E0,-1.186207098E0,2.343502175E0
1.372833667E0,1.105272424E0,-1.891704656E0,-1.220503503E0,2.507947854E0
1.382779667E0,1.460480981E0,-2.013465321E0,-1.237498873E0,2.778209991E0
1.392725667E0,1.893030366E0,-2.169550311E0,-1.295695188E0,3.157425936E0
1.402672667E0,2.363665007E0,-2.321090845E0,-1.304959370E0,3.560518773E0
1.412618667E0,2.853605838E0,-2.485277152E0,-1.326402279E0,4.009864312E0
1.422565667E0,3.260735184E0,-2.695369365E0,-1.309644451E0,4.428609098E0
1.432511667E0,3.640624400E0,-2.912775275E0,-1.270176623E0,4.832365308E0
1.442458667E0,4.042622815E0,-3.084585766E0,-1.240552874E0,5.234160869E0
1.452404667E0,4.400827339E0,-3.195841323E0,-1.231804855E0,5.576560430E0
1.462351667E0,4.775115214E0,-3.287036837E0,-1.261405946E0,5.932746534E0
1.472297667E0,5.117151602E0,-3.411732804E0,-1.412714345E0,6.310382165E0
1.482244667E0,5.324708462E0,-3.588757843E0,-1.432571928E0,6.579055053E0
1.492190667E0,5.517229207E0,-3.711484467E0,-1.401021522E0,6.795424665E0
1.502137667E0,5.874004671E0,-3.814621165E0,-1.420923836E0,7.146627880E0
1.512083667E0,6.187255801E0,-3.949893576E0,-1.467371924E0,7.485784793E0
1.522030667E0,6.387195493E0,-4.073770348E0,-1.449307829E0,7.713129345E0
1.531976667E0,6.579982871E0,-4.161479752E0,-1.458613526E0,7.920962172E0
1.541923667E0,6.789392713E0,-4.275099338E0,-1.588674459E0,8.179010595E0
1.551869667E0,6.903203503E0,-4.357543325E0,-1.713290466E0,8.341328830E0
1.561816667E0,6.879759677E0,-4.392833610E0,-1.785607075E0,8.355625229E0
1.571762667E0,6.707802420E0,-4.363534382E0,-1.877139973E0,8.219409960E0
1.581708667E0,6.464990943E0,-4.246567850E0,-1.826091295E0,7.947581759E0
1.591655667E0,5.900399002E0,-4.070367853E0,-1.698549635E0,7.366659603E0
1.601601667E0,4.883334604E0,-3.855677390E0,-1.628566504E0,6.431596524E0
1.611548667E0,3.386010318E0,-3.587145765E0,-1.562611080E0,5.174401801E0
1.621494667E0,1.820940483E0,-3.357249033E0,-1.535591682E0,4.116428929E0
1.631441667E0,3.508507732E-1,-3.146952753E0,-1.459311976E0,3.486545473E0
1.641387667E0,-8.131874835E-1,-2.871907915E0,-1.393786762E0,3.294202558E0
1.651334667E0,-1.564778936E0,-2.612813112E0,-1.236223011E0,3.286878885E0
1.661280667E0,-1.764730030E0,-2.330157537E0,-9.742010915E-1,3.081067022E0
1.671227667E0,-1.568894206E0,-2.102226055E0,-6.488661057E-1,2.702186270E0
1.681173667E0,-1.232487810E0,-1.947762498E0,-3.515556550E-1,2.331608099E0
1.691120667E0,-8.596658313E-1,-1.796979178E0,-9.357635424E-2,1.994220660E0
1.701066667E0,-5.434086478E-1,-1.612929879E0,2.007495314E-1,1.713807495E0
1.711013667E0,-5.242905915E-1,-1.396380587E0,4.585784125E-1,1.560465805E0
1.720959667E0,-8.161651781E-1,-1.121473158E0,7.275076479E-1,1.566235940E0
1.730906667E0,-1.176209821E0,-7.133684957E-1,9.556755044E-1,1.675016365E0
1.740852667E0,-1.644888129E0,-2.006150454E-1,1.193333538E0,2.042045123E0
1.750798667E0,-2.199624295E0,5.027295685E-1,1.448756875E0,2.681413907E0
1.760745667E0,-2.911794112E0,1.379461668E0,1.541167440E0,3.571646192E0
1.770691667E0,-3.612871760E0,2.290326889E0,1.547556693E0,4.548996739E0
1.780638667E0,-4.420472814E0,3.188866180E0,1.628223126E0,5.688634103E0
1.790584667E0,-5.279688994E0,3.900315619E0,1.578615348E0,6.751266861E0
1.800531667E0,-6.061221991E0,4.584032300E0,1.545709119E0,7.755061626E0
1.810477667E0,-7.280564675E0,4.980375288E0,1.669225118E0,8.977587231E0
1.820424667E0,-9.176862904E0,6.762600771E0,1.236601911E0,1.146633186E1
1.830370667E0,-1.261987247E1,9.945488173E0,8.278838754E-1,1.608910525E1
1.840317667E0,-1.569966059E1,9.212062558E0,1.036827110E0,1.823229140E1
1.850263667E0,-1.549718905E1,5.339269198E0,1.075594735E0,1.642642895E1
1.860210667E0,-1.291729694E1,3.495892949E0,6.870786832E-1,1.339962331E1
1.870156667E0,-1.000955378E1,5.047234690E0,8.925029173E-1,1.124554606E1
1.880103667E0,-8.721016896E0,5.689082968E0,1.875833413E0,1.058019620E1
1.890049667E0,-8.441101327E0,4.210773534E0,2.351521948E0,9.721751943E0
1.899996667E0,-7.666827648E0,2.670254989E0,2.089056809E0,8.382998643E0
1.909942667E0,-6.260211511E0,1.938719194E0,1.827437325E0,6.803558440E0
1.919888667E0,-5.036178190E0,1.500611883E0,1.884034425E0,5.582518473E0
1.929835667E0,-4.266777581E0,9.930478370E-1,2.244679431E0,4.922410048E0
1.939781667E0,-3.796877497E0,5.876077509E-1,2.206506322E0,4.430601736E0
1.949728667E0,-3.440839951E0,1.115800774E-1,1.762085919E0,3.867399187E0
1.959674667E0,-3.028658026E0,-4.903551060E-1,1.594256796E0,3.457581857E0
1.969621667E0,-2.910290208E0,-8.208789110E-1,1.740917098E0,3.489186671E0
1.979567667E0,-3.008582780E0,-9.732333773E-1,1.793660591E0,3.635377816E0
1.989514667E0,-2.940484937E0,-1.100721974E0,1.509122798E0,3.483603328E0
1.999460667E0,-2.471802244E0,-1.298975329E0,1.080541479E0,2.994113078E0
2.009407667E0,-1.868021679E0,-1.580891815E0,6.668661743E-1,2.536421578E0
2.019353667E0,-1.244826312E0,-1.844462078E0,2.706898320E-1,2.241630185E0
2.029300667E0,-7.597854477E-1,-2.217892751E0,-6.232678726E-2,2.345251972E0
2.039246667E0,-2.550988162E-1,-2.566784999E0,-3.503844577E-1,2.603119265E0
2.049193667E0,3.749421787E-1,-2.778778142E0,-5.371837020E-1,2.854952877E0
2.059139667E0,8.783465159E-1,-3.088984042E0,-6.942878616E-1,3.285627892E0
2.069086667E0,1.390105501E0,-3.520562936E0,-9.413702913E-1,3.900376227E0
2.079032667E0,2.008244635E0,-3.843499394E0,-1.199093484E0,4.499262083E0
2.088979667E0,2.578992231E0,-4.118759410E0,-1.399223503E0,5.056995790E0
2.098925667E0,3.034075179E0,-4.355349450E0,-1.547965559E0,5.529093813E0
2.108872667E0,3.387771499E0,-4.457616667E0,-1.617150254E0,5.827736869E0
2.118818667E0,3.937574077E0,-4.499476299E0,-1.726763474E0,6.223462756E0
2.128764667E0,4.484626710E0,-4.553847803E0,-1.816367376E0,6.644441059E0
2.138711667E0,5.006826337E0,-4.677930397E0,-1.900521819E0,7.110789404E0
2.148657667E0,5.700647006E0,-4.703558743E0,-2.105378289E0,7.684624836E0
2.158604667E0,6.430827416E0,-4.699373306E0,-2.304756209E0,8.291655559E0
2.168550667E0,7.018723435E0,-4.637573499E0,-2.415236279E0,8.752310146E0
2.178497667E0,7.494735906E0,-4.615877405E0,-2.518691651E0,9.155391753E0
2.188443667E0,7.838865597E0,-4.643318388E0,-2.565620234E0,9.465232521E0
2.198390667E0,8.086679952E0,-4.692565393E0,-2.661336815E0,9.720970952E0
2.208336667E0,8.155025132E0,-4.771173606E0,-2.813381964E0,9.858176837E0
2.218283667E0,8.087122586E0,-4.902265842E0,-2.969849946E0,9.912304011E0
2.228229667E0,8.033857960E0,-5.023996686E0,-3.117172884E0,9.974977855E0
2.238176667E0,7.974861892E0,-5.145762028E0,-3.234903647E0,1.002705793E1
2.248122667E0,7.937564843E0,-5.254822540E0,-3.359751642E0,1.009485149E1
2.258069667E0,7.850691590E0,-5.353744565E0,-3.435721006E0,1.010446031E1
2.268015667E0,7.603500549E0,-5.474383149E0,-3.397189025E0,9.966091748E0
2.277962667E0,7.258922961E0,-5.604545093E0,-3.303380975E0,9.747574781E0
2.287908667E0,6.733474036E0,-5.599883108E0,-3.190845462E0,9.320936551E0
2.297855667E0,5.955626539E0,-5.512757256E0,-3.106016396E0,8.689494686E0
2.307801667E0,4.737570242E0,-5.501214852E0,-3.036854360E0,7.869588366E0
2.317748333E0,3.173977999E0,-5.457022766E0,-2.853437730E0,6.927866965E0
2.327694333E0,1.340749154E0,-5.271821566E0,-2.460404266E0,5.970201007E0
2.337641333E0,-6.335981485E-1,-4.884076908E0,-1.849411307E0,5.260796141E0
2.347587333E0,-2.523811473E0,-4.397970389E0,-1.055457435E0,5.179358869E0
2.357534333E0,-3.813249409E0,-3.810025839E0,-2.218516210E-1,5.395033465E0
2.367480333E0,-4.427877728E0,-3.099193280E0,6.322417407E-1,5.441583389E0
2.377426333E0,-4.587196813E0,-2.374521532E0,1.408521599E0,5.353938756E0
2.387373333E0,-4.569866543E0,-1.516145012E0,1.882338002E0,5.169678159E0
2.397319333E0,-4.435854792E0,-5.545136797E-1,1.962775809E0,4.882292702E0
2.407266333E0,-4.019452930E0,2.349475569E-1,1.740224203E0,4.386294848E0
2.417212333E0,-3.487121540E0,9.718768233E-1,1.468363320E0,3.906488453E0
2.427159333E0,-3.001126995E0,1.808288278E0,1.206557674E0,3.705732203E0
2.437105333E0,-2.549890639E0,2.677109095E0,1.062456041E0,3.846773741E0
2.447052333E0,-2.061406642E0,3.686327407E0,1.026103243E0,4.346411734E0
2.456998333E0,-1.670445431E0,4.626468467E0,9.615148263E-1,5.011896764E0
2.466945333E0,-2.354825478E0,5.227337703E0,9.804030870E-1,5.816481128E0
2.476891333E0,-4.826372199E0,5.200094941E0,1.488968323E0,7.249267733E0
2.486838333E0,-7.224119164E0,4.826832082E0,2.631879712E0,9.078160412E0
2.496784333E0,-7.995153485E0,4.953251808E0,3.704233335E0,1.010833949E1
2.506731333E0,-7.418983473E0,6.008433328E0,4.274239798E0,1.046000539E1
2.516677333E0,-7.084616877E0,7.729388178E0,4.056975390E0,1.124252139E1
2.526624333E0,-8.217277513E0,7.156559265E0,3.524660957E0,1.145265144E1
2.536570333E0,-8.806600837E0,4.753246627E0,2.812619487E0,1.039521044E1
2.546517333E0,-7.488772330E0,2.916873588E0,1.882328061E0,8.254272922E0
2.556463333E0,-5.284435179E0,2.217456549E0,2.146775406E0,6.119723307E0
2.566410333E0,-3.745425215E0,1.434365269E0,3.023865063E0,5.022884996E0
2.576356333E0,-2.665846188E0,7.800624222E-1,3.378225920E0,4.373516165E0
2.586302333E0,-1.818750701E0,1.177664316E-1,3.069733254E0,3.570011946E0
2.596249333E0,-1.533746300E0,-6.643407619E-1,2.603404064E0,3.093774246E0
2.606195333E0,-1.730631992E0,-9.458035040E-1,2.272163098E0,3.008713430E0
2.616142333E0,-2.346501675E0,-7.661969197E-1,1.815734999E0,3.064314184E0
2.626088333E0,-3.585145725E0,-3.706567544E-1,1.590138456E0,3.939441155E0
2.636035333E0,-4.723446001E0,4.237553197E-1,1.563450010E0,4.993484417E0
2.645981333E0,-5.445742902E0,1.954134793E0,1.368986966E0,5.945492735E0
2.655928333E0,-6.007561508E0,4.020973499E0,8.894129562E-1,7.283548487E0
2.665874333E0,-6.377110215E0,6.181690421E0,3.399068320E-1,8.887990089E0
2.675821333E0,-6.425056214E0,7.768297305E0,-6.367658776E-1,1.010115148E1
2.685767333E0,-5.880237218E0,8.437078443E0,-2.077769490E0,1.049183532E1
2.695714333E0,-4.955196007E0,8.228486041E0,-3.357917370E0,1.017534073E1
2.705660333E0,-3.814331728E0,7.485257569E0,-3.623415459E0,9.149171930E0
2.715607333E0,-2.523742183E0,6.535800725E0,-2.966724025E0,7.608378090E0
2.725553333E0,-1.555920989E0,5.248891125E0,-1.307494723E0,5.628613560E0
2.735500333E0,-1.041217492E0,3.707203721E0,4.155838358E-1,3.873009581E0
2.745446333E0,-6.885008723E-1,2.085303628E0,1.333137102E0,2.569003543E0
2.755393333E0,3.443977860E-1,1.193670484E0,2.010913596E0,2.363732758E0
2.765339333E0,1.343225888E0,6.982551974E-1,3.208670991E0,3.547870578E0
2.775286333E0,1.950218036E0,-1.833862245E-2,3.754191361E0,4.230560184E0
2.785232333E0,2.597339040E0,-8.679647845E-1,3.746680320E0,4.640813116E0
2.795179333E0,3.126158300E0,-1.916201566E0,2.983131897E0,4.726919724E0
2.805125333E0,3.542240319E0,-3.074545512E0,1.709224166E0,4.992168249E0
2.815071333E0,3.975691784E0,-3.831556456E0,7.443318415E-1,5.571443253E0
2.825018333E0,4.116234582E0,-4.260271969E0,2.432248753E-1,5.928951233E0
2.834964333E0,3.864617198E0,-4.966538436E0,5.648246598E-1,6.318290673E0
2.844911333E0,3.530926249E0,-5.218768024E0,8.147206235E-1,6.353483262E0
2.854857333E0,2.515890250E0,-5.236503214E0,6.050219285E-1,5.840952079E0
2.864804333E0,1.656796715E0,-5.370735404E0,6.519353092E-3,5.620481887E0
2.874750333E0,9.444688770E-1,-5.553297172E0,-5.663233012E-1,5.661435597E0
2.884697333E0,2.448974714E-2,-5.595000683E0,-9.025039950E-1,5.667375570E0
2.894643333E0,-4.530149330E-1,-5.744505216E0,-1.564428541E0,5.970929523E0
2.904590333E0,-3.349481007E-1,-5.677914201E0,-2.045789899E0,6.044514556E0
2.914536333E0,1.646014595E-1,-5.654976159E0,-2.064461812E0,6.022279599E0
2.924483333E0,4.268927895E-1,-6.191708456E0,-2.344420504E0,6.634440335E0
2.934429333E0,3.594811173E-1,-6.848633779E0,-2.632232884E0,7.345860145E0
2.944376333E0,4.095242201E-1,-7.235001417E0,-2.437055749E0,7.645403607E0
2.954322333E0,6.136395550E-1,-7.176371970E0,-2.289817597E0,7.557786236E0
2.964269333E0,7.740949000E-1,-7.093286544E0,-2.071483734E0,7.430005503E0
2.974215333E0,7.485580628E-1,-7.346978520E0,-1.866880302E0,7.617327262E0
2.984162333E0,7.238300416E-1,-7.853898203E0,-2.024238231E0,8.142799723E0
2.994108333E0,1.011009606E0,-8.216323832E0,-1.929176538E0,8.500108226E0
3.004055333E0,1.726850451E0,-8.235601518E0,-1.064441171E0,8.481755705E0
3.014001333E0,2.182842055E0,-8.060506645E0,-3.814817778E-1,8.359551134E0
3.023948333E0,2.135811730E0,-7.792114184E0,-1.166846601E-1,8.080368216E0
3.033894333E0,2.038328121E0,-7.605424867E0,-3.957699243E-1,7.883774653E0
3.043841333E0,2.106006280E0,-7.310642168E0,-1.855684639E0,7.830984410E0
3.053787333E0,1.752390651E0,-6.547631396E0,-3.290870272E0,7.534731385E0
3.063734333E0,1.570122852E0,-5.454081616E0,-3.614759241E0,6.728950618E0
3.073680333E0,1.694490205E0,-4.305190864E0,-3.412166083E0,5.748812296E0
3.083626333E0,1.996166626E0,-3.427536074E0,-2.675299966E0,4.784340565E0
3.093573333E0,2.419449637E0,-2.779628327E0,-2.718437800E0,4.579298445E0
3.103519333E0,2.252881174E0,-1.910918022E0,-3.236900471E0,4.382306006E0
3.113466333E0,1.694470471E0,-8.945772171E-1,-2.417283390E0,3.084600065E0
3.123412333E0,1.530477999E0,-1.565124214E-1,-1.454340527E0,2.117065283E0
3.133359333E0,1.161509628E0,3.308068103E-1,-1.087759940E0,1.625349024E0
3.143305333E0,5.552958910E-1,8.495583344E-1,-9.043069839E-1,1.359365297E0
3.153252333E0,-9.023130834E-2,1.630387911E0,-1.030807475E0,1.931028348E0
3.163198333E0,-8.792010865E-1,2.373631586E0,-1.594869000E0,2.991776827E0
3.173145333E0,-1.952040905E0,2.604696007E0,-2.039135767E0,3.840960773E0
3.183091333E0,-2.596618371E0,2.583758297E0,-2.185223773E0,4.265376518E0
3.193038333E0,-2.465696873E0,2.395465089E0,-2.392328643E0,4.188215658E0
3.202984333E0,-1.616495512E0,1.632857190E0,-2.716273745E0,3.557727280E0
3.212931333E0,-7.027815270E-1,1.072831340E0,-2.423082658E0,2.741568625E0
3.222877333E0,6.764743191E-1,1.006130397E0,-1.681991197E0,2.073405476E0
3.232824333E0,1.513382495E0,6.356274247E-1,-5.694006908E-1,1.737402068E0
3.242770333E0,1.935646774E0,4.301843333E-1,7.593040757E-1,2.123282759E0
3.252717333E0,2.171808506E0,8.023332971E-1,2.373885209E0,3.315994857E0
3.262663333E0,2.168879928E0,1.445257462E0,3.930443982E0,4.716057588E0
3.272610333E0,2.195541185E0,2.482742384E0,4.902229589E0,5.917454333E0
3.282556333E0,3.078059981E0,3.335517272E0,5.273887387E0,6.958018172E0
3.292503333E0,3.308887590E0,3.519041491E0,5.118592356E0,7.037924254E0
3.302449333E0,3.593978529E0,3.547168937E0,5.089209512E0,7.169319535E0
3.312396333E0,3.962925850E0,2.985099485E0,5.137641415E0,7.142195708E0
3.322342167E0,3.151381727E0,9.687731212E-1,3.722047462E0,4.972259593E0
3.332289167E0,1.281811413E0,-7.076516730E-1,1.550427822E0,2.132519125E0
3.342235167E0,-1.068086617E0,-5.989747381E-1,4.915391672E-1,1.319541781E0
3.352182167E0,-1.514518609E0,-3.416656744E-1,1.047778360E0,1.873056737E0
3.362128167E0,-1.544247023E0,-1.790473566E0,1.277969792E0,2.687694411E0
3.372074167E0,-2.022666792E0,-3.046208151E0,1.351381584E0,3.898306971E0
3.382021167E0,-3.059894144E0,4.888386891E0,-4.488771801E0,7.308101727E0
3.391967167E0,-7.927555579E0,1.859146541E1,-6.155991908E0,2.112782431E1
3.401914167E0,-1.371303984E1,2.244254923E1,-9.599303770E-1,2.631799658E1
3.411860167E0,-7.463850328E0,1.760980444E1,-2.392030435E0,1.927527130E1
3.421807167E0,-4.214092706E0,2.733137115E0,-1.627027516E0,5.279757037E0
3.431753167E0,-3.689089631E0,-7.865773314E0,-3.112571125E0,9.228644057E0
3.441700167E0,-4.885614726E0,-1.103003558E1,-5.366209660E0,1.320329967E1
3.451646167E0,-1.551421849E0,-5.737706074E0,-1.635232329E0,6.164589647E0
3.461593167E0,-1.027675048E0,-1.445603617E0,5.714717746E-1,1.863455342E0
3.471539167E0,-2.300505722E0,-5.186199617E-1,-5.026360130E-1,2.411210527E0
3.481486167E0,-2.488895409E0,-1.005533981E-1,-5.430250704E-1,2.549428871E0
3.491432167E0,-2.334893782E0,8.565580362E-1,8.408950996E-1,2.625361920E0
3.501379167E0,-2.630217641E0,1.509292075E0,2.313491803E0,3.814217054E0
3.511325167E0,-3.695366910E0,1.813846056E0,2.913589207E0,5.043290214E0
3.521272167E0,-4.003600544E0,1.774793673E0,3.070530814E0,5.348538994E0
3.531218167E0,-3.789450364E0,1.488361382E0,3.085855781E0,5.108586846E0
3.541165167E0,-3.607879115E0,1.400353770E0,2.619116410E0,4.673066783E0
3.551111167E0,-2.943023798E0,1.571486569E0,1.945686736E0,3.862208693E0
3.561058167E0,-2.321167151E0,1.965302975E0,1.371724048E0,3.336444154E0
3.571004167E0,-1.748248191E0,2.526438042E0,9.854183900E-1,3.226501250E0
3.580951167E0,-1.109946834E0,3.344927196E0,2.350124609E-1,3.532102883E0
3.590897167E0,-7.552977097E-1,4.206985123E0,-5.716226327E-1,4.312302273E0
3.600844167E0,-8.551520732E-1,4.588634643E0,-8.950273796E-1,4.752675769E0
3.610790167E0,-1.021096200E0,4.645274867E0,-1.399472594E0,4.957795839E0
3.620737167E0,-1.132208646E0,4.262323172E0,-2.092274094E0,4.881281197E0
3.630683167E0,-1.557448281E0,3.548123202E0,-2.415107056E0,4.565913435E0
3.640630167E0,-2.345384564E0,2.804084891E0,-2.612224882E0,4.493043474E0
3.650576167E0,-2.869474888E0,2.152229689E0,-2.654069896E0,4.462069675E0
3.660523167E0,-3.211137055E0,1.757408146E0,-2.653698013E0,4.521282752E0
3.670469167E0,-3.485056304E0,1.413737462E0,-2.689584714E0,4.623649747E0
3.680415167E0,-3.850837650E0,9.461689550E-1,-2.313516362E0,4.590919761E0
3.690362167E0,-4.025098709E0,5.126277351E-1,-1.506586568E0,4.328280248E0
3.700308167E0,-3.847524033E0,1.595155513E-1,-1.020886431E0,3.983854352E0
3.710255167E0,-3.298808452E0,-1.507815653E-1,-1.022499093E0,3.456931685E0
3.720201167E0,-2.461208258E0,-4.531077576E-1,-1.696789477E0,3.023565322E0
3.730148167E0,-1.991026923E0,-6.305859554E-1,-1.720159628E0,2.705693258E0
3.740094167E0,-1.856242463E0,-8.328756434E-1,-9.736339116E-1,2.255500147E0
3.750041167E0,-1.884009136E0,-1.107174377E0,-2.343505927E-1,2.197782001E0
3.759987167E0,-1.881256267E0,-1.563022724E0,1.940785161E-1,2.453534522E0
3.769934167E0,-1.707665006E0,-2.189769398E0,2.154079163E-1,2.785248707E0
3.779880167E0,-1.361337346E0,-2.756073403E0,3.505306381E-1,3.093873253E0
3.789827167E0,-9.045075434E-1,-3.256012096E0,6.696441134E-1,3.445021321E0
3.799773167E0,-3.492600747E-1,-3.753615995E0,9.367238013E-1,3.884464843E0
3.809720167E0,4.300916550E-1,-4.357552096E0,1.078256972E0,4.509531816E0
3.819666167E0,1.024573173E0,-5.061830510E0,1.066490181E0,5.273450446E0
3.829613167E0,1.416830639E0,-5.653634223E0,9.733906674E-1,5.909185932E0
3.839559167E0,1.742181851E0,-6.110501155E0,7.300387613E-1,6.395809453E0
3.849506167E0,1.967465568E0,-6.498970867E0,4.848066831E-1,6.807538514E0
3.859452167E0,2.354866263E0,-6.706846985E0,3.219338067E-1,7.115534623E0
3.869399167E0,2.922862306E0,-6.543854679E0,2.184977312E-1,7.170278892E0
3.879345167E0,3.457801847E0,-6.348495111E0,2.596349399E-1,7.233753804E0
3.889292167E0,3.906222476E0,-6.248164492E0,4.363591392E-1,7.381635514E0
3.899238167E0,4.269815502E0,-6.121894455E0,5.821460129E-1,7.486508540E0
3.909185167E0,4.804536064E0,-5.966580128E0,6.543261626E-1,7.688419080E0
3.919131167E0,5.399943416E0,-5.894646512E0,6.714416206E-1,8.022286472E0
3.929078167E0,5.531802807E0,-5.797997299E0,8.416640085E-1,8.057667980E0
3.939024167E0,5.460088461E0,-5.686608426E0,1.441258551E0,8.014194133E0
3.948971167E0,5.349974281E0,-5.415812175E0,1.821364406E0,7.827554830E0
3.958917167E0,5.067670709E0,-5.104319887E0,1.678802272E0,7.386050703E0
3.968864167E0,5.017538436E0,-4.706498723E0,1.447586993E0,7.030101727E0
3.978810167E0,5.281607466E0,-4.085212179E0,1.239161822E0,6.791160283E0
3.988757167E0,4.752564550E0,-3.564061543E0,8.930160836E-1,6.007235821E0
3.998703167E0,3.896931543E0,-3.171639113E0,1.004043526E0,5.123814352E0
4.008650167E0,3.291589187E0,-2.827656772E0,1.348945634E0,4.544211320E0
4.018596167E0,2.692076213E0,-2.696569798E0,1.422873151E0,4.067349384E0
4.028543167E0,1.444969779E0,-3.230938650E0,2.698145038E0,4.450493104E0
4.038489167E0,1.174615577E0,-3.315870627E0,2.808152214E0,4.501159698E0
4.048436167E0,4.099572064E-1,-3.522059239E0,6.242499125E-1,3.600368612E0
4.058382167E0,4.469260812E-2,-4.047694105E0,4.677678967E-1,4.074878133E0
4.068328167E0,-2.710957749E-1,-4.247068956E0,3.254449135E-1,4.268138005E0
4.078275167E0,-3.594887187E-1,-4.265494702E0,1.399379039E-1,4.282903198E0
4.088221167E0,-3.542143840E-1,-4.136444314E0,5.294770718E-2,4.151920381E0
4.098168167E0,-7.515806347E-1,-3.699852017E0,-1.651183534E-1,3.779026656E0
4.108114167E0,-1.354344661E0,-3.339937767E0,-1.976803279E-1,3.609502910E0
4.118061167E0,-1.750274982E0,-3.186229085E0,-1.509915534E-1,3.638449772E0
4.128007167E0,-2.173205844E0,-2.798730011E0,-1.962160389E-1,3.548832773E0
4.137954167E0,-2.576712987E0,-2.340606512E0,-3.979521418E-1,3.503748645E0
4.147900167E0,-2.934537149E0,-2.044129289E0,-6.506981845E-1,3.635021452E0
4.157847167E0,-3.088087079E0,-1.866053506E0,-1.024523545E0,3.750744725E0
4.167793167E0,-2.857666144E0,-1.555670435E0,-1.292436973E0,3.500965527E0
4.177740167E0,-2.465529643E0,-9.801582348E-1,-1.384224371E0,2.992594810E0
4.187686167E0,-1.661367629E0,-5.078698558E-1,-1.705651517E0,2.434609062E0
4.197633167E0,-7.090610712E-1,5.081084222E-1,-2.042583578E0,2.221055930E0
4.207579167E0,-4.409051301E-1,1.731157072E0,-1.669291483E0,2.444961390E0
4.217526167E0,-4.193552899E-1,2.279245831E0,-1.316170821E0,2.665169047E0
4.227472167E0,-1.797008707E-1,2.888097101E0,-1.448947640E0,3.236177766E0
4.237419167E0,-3.243070453E-1,3.628983178E0,-1.660819745E0,4.004124897E0
4.247365167E0,-4.863769894E-1,4.184791431E0,-1.377378159E0,4.432404821E0
4.257312167E0,-6.776308984E-1,4.674840143E0,-9.176912606E-1,4.812013222E0
4.267258167E0,-1.169255435E0,5.017906811E0,-1.129154645E0,5.274612521E0
4.277205167E0,-2.003406648E0,5.588439522E0,-1.054959326E0,6.029695985E0
4.287151167E0,-3.000400186E0,1.189115269E1,-8.576482496E-1,1.229379820E1
4.297098167E0,-3.672416588E0,2.148579974E1,-2.075418033E0,2.189597209E1
4.307044167E0,-4.314124240E0,1.935336931E1,-4.070260557E0,2.024182779E1
4.316990917E0,-3.500656090E0,8.042888984E0,-7.555492569E0,1.157705162E1
4.326936917E0,-3.460184587E0,-1.368231506E0,-8.949699161E0,9.692370706E0
4.336883917E0,-3.473336729E0,-3.254666067E0,-6.376902639E0,7.957500017E0
4.346829917E0,-3.203976262E0,-1.821721671E0,-4.009602419E0,5.446195488E0
4.356776917E0,-2.846553803E0,6.332476079E-1,-4.513353203E0,5.373474502E0
4.366722917E0,-2.523850064E0,3.167508055E0,-3.534075851E0,5.375185443E0
4.376669917E0,-2.558895936E0,4.674491649E0,-1.944495951E0,5.672731713E0
4.386615917E0,-2.625802701E0,5.448809767E0,-1.389524142E0,6.206057125E0
4.396562917E0,-2.361177601E0,5.752188458E0,-2.113129942E0,6.567202591E0
4.406508917E0,-1.645280916E0,5.625772240E0,-2.421430527E0,6.341891547E0
4.416455917E0,-1.064427284E0,5.298636897E0,-2.185417023E0,5.829631718E0
4.426401917E0,-7.694048484E-1,5.208901432E0,-2.318528887E0,5.753278557E0
4.436348917E0,-6.375172448E-1,4.742144519E0,-2.051071104E0,5.205886625E0
4.446294917E0,-8.508508614E-1,4.036931720E0,-1.953255372E0,4.564643628E0
4.456241917E0,-1.243938997E0,3.234745772E0,-2.222809675E0,4.117262111E0
4.466187917E0,-1.416167711E0,2.480653759E0,-2.394170369E0,3.727093480E0
4.476134917E0,-1.384196743E0,1.776097602E0,-2.414505962E0,3.301569681E0
4.486080917E0,-1.169208511E0,1.015168439E0,-2.285450604E0,2.760597755E0
4.496027917E0,-1.055735690E0,3.599499178E-1,-2.088267435E0,2.367488685E0
4.505973917E0,-1.069102717E0,-8.580788970E-2,-1.913131778E0,2.193266243E0
4.515919917E0,-8.270665808E-1,-5.191573209E-1,-1.546020337E0,1.828590259E0
4.525866917E0,-4.494240117E-1,-9.100852025E-1,-1.136958339E0,1.524109997E0
4.535812917E0,-3.982436255E-1,-1.112961366E0,-8.455062139E-1,1.453327818E0
4.545759917E0,-5.254305062E-1,-1.337711964E0,-8.861525488E-1,1.688436216E0
4.555705917E0,-6.205490635E-1,-1.672004884E0,-9.616167140E-1,2.026175752E0
4.565652917E0,-5.505709022E-1,-2.059575879E0,-1.011029341E0,2.359483301E0
4.575598917E0,-5.659651592E-1,-2.382615833E0,-8.591197014E-1,2.595238222E0
4.585545917E0,-6.997710881E-1,-2.583596329E0,-4.519886736E-1,2.714579770E0
4.595491917E0,-8.371740778E-1,-2.820987437E0,-3.273786608E-1,2.960744390E0
4.605438917E0,-8.544506997E-1,-3.053654580E0,-2.638335331E-1,3.181902014E0
4.615384917E0,-8.425023530E-1,-3.123783161E0,-1.435365728E-1,3.238585216E0
4.625331917E0,-6.177656427E-1,-3.092098854E0,1.131716895E-1,3.155236527E0
4.635277917E0,-2.462318060E-1,-3.041896414E0,3.730652225E-1,3.074563637E0
4.645224917E0,3.806394133E-1,-2.933535229E0,4.000394516E-1,2.985053913E0
4.655170917E0,1.101211094E0,-2.825871617E0,4.877161114E-1,3.071820840E0
4.665117917E0,1.389461284E0,-2.887553895E0,3.304692797E-1,3.221456208E0
4.675063917E0,1.392717598E0,-3.097023379E0,2.406181866E-1,3.404278665E0
4.685010917E0,1.434419940E0,-3.280955733E0,2.371123423E-1,3.588656204E0
4.694956917E0,1.669465000E0,-3.529598054E0,2.394811955E-1,3.911844456E0
4.704903917E0,2.230475959E0,-3.891055384E0,1.732411592E-1,4.488356882E0
4.714849917E0,2.829902687E0,-4.165217292E0,4.704435825E-2,5.035831360E0
4.724796917E0,3.216641623E0,-4.307998697E0,1.281848542E-1,5.377924085E0
4.734742917E0,3.389741134E0,-4.261492867E0,4.939550905E-1,5.467600758E0
4.744689917E0,3.317996675E0,-4.233099373E0,5.929852889E-1,5.411087117E0
4.754635917E0,3.197035909E0,-4.269505892E0,9.574428253E-1,5.419078882E0
4.764582917E0,3.121534614E0,-4.277621242E0,1.331468161E0,5.460295716E0
4.774528917E0,3.065494022E0,-4.343626367E0,1.377731477E0,5.492038569E0
4.784475917E0,3.170980132E0,-4.394093100E0,1.365206595E0,5.588108644E0
4.794421917E0,3.250090621E0,-4.401859957E0,1.335556680E0,5.632332711E0
4.804368917E0,3.248301957E0,-4.317774072E0,1.374582020E0,5.575312931E0
4.814314917E0,3.387163973E0,-4.073740527E0,1.440987533E0,5.490417720E0
4.824261917E0,3.568353984E0,-3.804160497E0,1.399782643E0,5.400386901E0
4.834207917E0,3.559380847E0,-3.658729718E0,1.323691510E0,5.273296348E0
4.844154917E0,3.499080558E0,-3.531041147E0,1.229627352E0,5.120917863E0
4.854100917E0,3.384322811E0,-3.342709347E0,1.149885217E0,4.893831084E0
4.864047917E0,3.218630846E0,-3.228503870E0,1.003378551E0,4.667932120E0
4.873993917E0,2.948890894E0,-3.149595695E0,7.929163563E-1,4.386869829E0
4.883940917E0,2.463751212E0,-3.052209148E0,5.052273528E-1,3.954909026E0
4.893886917E0,2.076071459E0,-2.998834010E0,2.207269822E-1,3.654011292E0
4.903833917E0,1.939091369E0,-2.985138077E0,-9.481669486E-2,3.560914894E0
4.913779917E0,1.883598369E0,-3.002235335E0,-4.344550665E-1,3.570729761E0
4.923726917E0,1.742283154E0,-3.102142031E0,-9.265959853E-1,3.676603853E0
4.933672917E0,1.565687447E0,-3.193159205E0,-1.364135531E0,3.809003628E0
4.943619917E0,1.554555371E0,-3.149575814E0,-1.388369901E0,3.776776561E0
4.953565917E0,1.678599520E0,-2.919306030E0,-1.312877669E0,3.614372949E0
4.963512917E0,1.773536521E0,-2.671224457E0,-1.282962145E0,3.453529174E0
4.973458917E0,1.743173538E0,-2.579365284E0,-1.311640399E0,3.378191793E0
4.983405917E0,1.557104027E0,-2.596271338E0,-1.347262806E0,3.313655818E0
4.993351917E0,1.258803058E0,-2.572921652E0,-1.223780136E0,3.114827248E0
5.003298917E0,7.150137560E-1,-2.434948413E0,-9.546971190E-1,2.711395403E0
5.013244917E0,2.391743629E-1,-2.019642320E0,-8.785149157E-1,2.215388890E0
5.023191917E0,-1.979162630E-1,-1.588951617E0,-7.992547381E-1,1.789621811E0
5.033137917E0,-7.417979506E-1,-1.344415212E0,-5.441407192E-1,1.629050516E0
5.043084917E0,-1.402066127E0,-1.173406373E0,-3.725448934E-1,1.865867530E0
5.053030917E0,-2.238937757E0,-9.680328637E-1,-2.540101377E-1,2.452437778E0
5.062977917E0,-2.962986485E0,-7.591989720E-1,-3.331275702E-1,3.076791505E0
5.072923917E0,-3.354946985E0,-4.263362807E-1,-3.756179707E-1,3.402722550E0
5.082870917E0,-3.281195761E0,-6.017603517E-2,-8.539039850E-2,3.282858251E0
5.092816917E0,-3.227070425E0,3.394601047E-1,9.584872842E-2,3.246290755E0
5.102763917E0,-3.204307214E0,8.378077698E-1,7.056200579E-2,3.312776114E0
5.112709917E0,-2.793610481E0,1.231080385E0,9.101541996E-2,3.054194205E0
5.122655917E0,-2.248215827E0,1.681205478E0,-3.424027160E-2,2.807507553E0
5.132602917E0,-2.093415762E0,2.519087507E0,-1.712870197E-1,3.279867477E0
5.142548917E0,-2.184755411E0,2.959476401E0,-4.280335812E-1,3.703359221E0
5.152495917E0,-2.118717834E0,3.389878836E0,-8.324157599E-1,4.083278068E0
5.162441917E0,-2.938163300E0,6.814867278E0,-2.351600447E0,7.784937010E0
5.172388917E0,-4.899009820E0,1.975195996E1,-5.692963765E0,2.113173102E1
5.182334917E0,-6.420338681E0,2.682016312E1,-2.859658875E0,2.772579210E1
5.192281917E0,-6.422192248E0,1.920718891E1,-3.787179598E0,2.060348001E1
5.202227917E0,-3.353637793E0,6.181323216E0,-7.286507785E0,1.012664006E1
5.212174917E0,-3.241443466E0,-6.957245225E-1,-7.672814612E0,8.358413272E0
5.222120917E0,-3.586951638E0,-1.830711181E0,-5.089095492E0,6.489731767E0
5.232067917E0,-3.765979055E0,-2.216281843E-1,-3.864787352E0,5.400768332E0
5.242013917E0,-4.333928760E0,2.698394714E0,-2.671795438E0,5.762183908E0
5.251960917E0,-4.927364430E0,4.948303894E0,-9.621148968E-1,7.049134467E0
5.261906917E0,-4.795129064E0,6.031963693E0,-1.227681398E-2,7.705712132E0
5.271853917E0,-4.571232160E0,6.897867919E0,2.260017554E-1,8.278153301E0
5.281799917E0,-3.898239565E0,7.183575740E0,-3.645402744E-2,8.173209958E0
5.291746917E0,-2.151392660E0,6.594358250E0,-6.460527910E-1,6.966450698E0
5.301692917E0,-5.985207749E-1,6.026260319E0,-9.679105838E-1,6.132771922E0
5.311639917E0,2.203463285E-1,5.384823101E0,-1.217149540E0,5.525063379E0
5.321586792E0,1.691615568E-1,4.784293588E0,-1.604732083E0,5.049083662E0
5.331533792E0,-4.606088582E-1,3.990465066E0,-1.970775969E0,4.474363629E0
5.341479792E0,-1.144253618E0,3.111046171E0,-2.327369585E0,4.050256017E0
5.351426792E0,-1.819220525E0,2.216526842E0,-2.840504858E0,4.036213870E0
5.361372792E0,-2.320013934E0,1.225582833E0,-3.009738482E0,3.992874111E0
5.371319792E0,-2.422774948E0,3.438466859E-1,-2.790644481E0,3.711571852E0
5.381265792E0,-2.088394174E0,-2.566073978E-1,-2.168391978E0,3.021450206E0
5.391212792E0,-1.533051359E0,-4.036976159E-1,-1.344881966E0,2.078924177E0
5.401158792E0,-1.178674422E0,-6.870513475E-1,-8.803960381E-1,1.623702599E0
5.411105792E0,-1.574405791E0,-1.565770331E0,-9.760056154E-1,2.425484959E0
5.421051792E0,-2.096460992E0,-2.822991278E0,-1.354381937E0,3.768126707E0
5.430998792E0,-1.869117155E0,-3.931103548E0,-1.086182434E0,4.486308764E0
5.440944792E0,-1.189939083E0,-4.830046297E0,-2.790047188E-1,4.982283200E0
5.450891792E0,-6.363796690E-1,-5.371170437E0,4.099699241E-1,5.424253524E0
5.460837792E0,-3.902075046E-1,-5.831955004E0,9.979641759E-1,5.929577857E0
5.470784792E0,-2.252628136E-1,-6.289005539E0,1.530030249E0,6.476366772E0
5.480730792E0,-2.634857699E-1,-6.754536876E0,1.759077380E0,6.984808257E0
5.490677792E0,-2.282378769E-1,-7.051136890E0,1.697466877E0,7.256171013E0
5.500623792E0,1.965950847E-1,-7.134739210E0,1.706968748E0,7.338725743E0
5.510570792E0,6.812430158E-1,-7.377990398E0,1.512550728E0,7.562185138E0
5.520516792E0,1.212124881E0,-7.770257292E0,9.238787842E-1,7.918314032E0
5.530463792E0,1.555296798E0,-8.076314008E0,4.827050476E-1,8.238859159E0
5.540409792E0,1.628612404E0,-8.191836863E0,6.399344838E-1,8.376639284E0
5.550356792E0,1.542797498E0,-8.075169708E0,9.365660727E-1,8.274403056E0
5.560302792E0,1.561547180E0,-7.886568936E0,1.205250456E0,8.129515843E0
5.570249792E0,1.654225840E0,-7.608226853E0,1.323046562E0,7.897596545E0
5.580195792E0,1.902659123E0,-6.976066827E0,1.527586259E0,7.390476297E0
5.590142792E0,2.313049169E0,-6.018626779E0,2.058146235E0,6.768310771E0
5.600088792E0,2.730976861E0,-5.190245891E0,2.300944702E0,6.300097900E0
5.610035792E0,2.965285902E0,-4.645863097E0,2.458592799E0,6.035034627E0
5.619981792E0,3.006050059E0,-4.275899237E0,2.369516315E0,5.738837758E0
5.629928792E0,2.721496771E0,-4.162265618E0,1.960167950E0,5.345395976E0
5.639874792E0,2.322432781E0,-4.031171628E0,1.609393483E0,4.922822981E0
5.649821792E0,1.944863594E0,-3.815999354E0,1.520746186E0,4.544998837E0
5.659767792E0,1.646069851E0,-3.638662074E0,1.310681455E0,4.203247973E0
5.669714792E0,1.398203748E0,-3.274084670E0,6.459547770E-1,3.618267779E0
5.679660792E0,1.200244801E0,-2.767506464E0,4.480136633E-2,3.016900193E0
5.689607792E0,1.022194891E0,-2.424312912E0,-2.834035791E-2,2.631155387E0
5.699553792E0,8.261576311E-1,-2.445157067E0,9.764491998E-2,2.582801588E0
5.709500792E0,5.969283588E-1,-2.686113222E0,-9.388362542E-3,2.751656928E0
5.719446792E0,4.661670021E-1,-2.808667939E0,-2.821782220E-1,2.861040337E0
5.729393792E0,4.889609836E-1,-2.721434498E0,-6.327141957E-1,2.836479477E0
5.739339792E0,4.951857832E-1,-2.362994916E0,-9.099097860E-1,2.580094911E0
5.749286792E0,1.604689398E-1,-1.671465186E0,-8.840604150E-1,1.897658812E0
5.759232792E0,-2.684445377E-1,-1.386286538E0,-6.684921388E-1,1.562285049E0
5.769179792E0,-5.500937694E-1,-1.457951767E0,-4.183133161E-1,1.613447409E0
5.779125792E0,-8.408413053E-1,-1.520000081E0,-3.641811092E-1,1.774835831E0
5.789072792E0,-1.142702352E0,-1.437429210E0,-4.474195862E-1,1.890014731E0
5.799018792E0,-1.114310026E0,-1.228635079E0,-1.105483654E0,1.993320121E0
5.808965792E0,-1.011925280E0,-7.825626916E-1,-1.390892244E0,1.889703250E0
5.818911792E0,-8.964407247E-1,-1.168443257E-1,-1.051126914E0,1.386407718E0
5.828858792E0,-8.779974371E-1,3.683435959E-1,-6.478656471E-1,1.151645085E0
5.838804792E0,-1.037609760E0,6.792125702E-1,-5.474069738E-1,1.355587741E0
5.848751792E0,-1.221146258E0,8.620772231E-1,-9.632258677E-1,1.778251780E0
5.858697792E0,-1.388257927E0,9.464624852E-1,-1.436479622E0,2.210548577E0
5.868644792E0,-1.690848121E0,1.043506969E0,-1.672928159E0,2.597414636E0
5.878590792E0,-2.024007412E0,1.493747837E0,-1.639272171E0,3.002515921E0
5.888537792E0,-2.343503807E0,2.143872263E0,-1.453749081E0,3.493076691E0
5.898483792E0,-2.171054507E0,2.689972385E0,-1.200067045E0,3.659178872E0
5.908430792E0,-1.335356120E0,3.148556060E0,-1.164835525E0,3.612952121E0
5.918376792E0,-6.352121993E-1,3.552584628E0,-1.022967747E0,3.751108515E0
5.928323792E0,-3.375028224E-1,3.913456067E0,-9.164928737E-1,4.033485556E0
5.938269792E0,-3.129472940E-1,4.194114817E0,-1.198947888E0,4.373329526E0
5.948216792E0,-5.565800492E-1,4.495163392E0,-1.477077717E0,4.764245361E0
5.958162792E0,-1.033961097E0,5.070591978E0,-1.384785558E0,5.357014990E0
5.968108792E0,-1.736276894E0,7.263400759E0,-1.315163054E0,7.582961287E0
5.978055792E0,-2.469433829E0,1.221961301E1,-9.890919033E-1,1.250581258E1
5.988001792E0,-3.297280282E0,1.439223253E1,-1.515163264E0,1.484264579E1
5.997948792E0,-4.473117928E0,9.963364280E0,-1.916331082E0,1.108827023E1
6.007894792E0,-3.196437154E0,5.447101795E0,-4.315289298E0,7.649173169E0
6.017841792E0,-3.795277699E0,2.936182848E0,-4.889568028E0,6.850779374E0
6.027787792E0,-4.197734828E0,2.347296311E0,-4.203884637E0,6.387755764E0
6.037734792E0,-3.961551462E0,2.944128630E0,-3.035007809E0,5.794226072E0
6.047680792E0,-3.623918320E0,3.708718734E0,-2.405284757E0,5.716010270E0
6.057627792E0,-3.105781338E0,4.104257730E0,-1.671937349E0,5.411671067E0
6.067573792E0,-2.577871905E0,4.388190336E0,-9.107750277E-1,5.170217513E0
6.077520792E0,-2.014701715E0,4.503165892E0,-1.053478226E-1,4.934432512E0
6.087466792E0,-1.433365980E0,4.483192388E0,3.368735889E-1,4.718796015E0
6.097413792E0,-8.856116813E-1,4.187435542E0,2.776423176E-1,4.289056974E0
6.107359792E0,-4.623065972E-1,3.658184173E0,-2.193442619E-1,3.693798958E0
6.117306792E0,-3.121834284E-1,3.064297097E0,-5.414755583E-1,3.127390442E0
6.127252792E0,-5.296007404E-1,2.295754859E0,-9.603619015E-1,2.544260659E0
6.137199792E0,-1.010002570E0,1.285881659E0,-9.510060641E-1,1.891562679E0
6.147145792E0,-1.578707588E0,3.248502517E-1,-8.219170842E-1,1.809252063E0
6.157092792E0,-1.779609878E0,-3.470369267E-1,-8.866330437E-1,2.018307236E0
6.167038792E0,-1.314764420E0,-4.188395655E-1,-1.450738642E0,2.002167493E0
6.176985792E0,-3.633604525E-1,-3.306717396E-1,-2.247688408E0,2.300755919E0
6.186931792E0,2.338797091E-1,-1.009514181E0,-2.994709969E0,3.168928272E0
6.196878792E0,-1.131026924E-1,-2.533218473E0,-2.434211079E0,3.515020857E0
6.206824792E0,-7.531590906E-1,-3.149000448E0,-1.692553754E0,3.653517572E0
6.216771792E0,-1.296959063E0,-3.532816946E0,-1.400429783E0,4.015482781E0
6.226717792E0,-1.296015761E0,-3.945439752E0,-1.367221692E0,4.372121549E0
6.236664792E0,-9.481944305E-1,-4.132386346E0,-1.400480654E0,4.465090778E0
6.246610792E0,-6.207646796E-1,-3.899398191E0,-7.664834332E-1,4.022207341E0
6.256557792E0,-4.741799533E-2,-3.716731759E0,8.692178428E-2,3.718050407E0
6.266503792E0,7.566604033E-1,-3.727492390E0,4.771819139E-1,3.833332370E0
6.276450792E0,1.156714911E0,-3.729501493E0,5.268529876E-1,3.940145282E0
6.286396792E0,1.084091616E0,-3.575485248E0,5.927835600E-1,3.782954102E0
6.296343792E0,7.832190415E-1,-3.400828332E0,8.056591934E-1,3.581640985E0
6.306289792E0,6.370626238E-1,-3.377006190E0,9.598664962E-1,3.568103598E0
6.316236167E0,5.311482060E-1,-3.388931002E0,9.514317414E-1,3.559802538E0
6.326182167E0,3.761912902E-1,-3.336389092E0,8.867301075E-1,3.472650622E0
6.336129167E0,4.047009981E-1,-3.443669711E0,8.459362766E-1,3.569068809E0
6.346075167E0,6.482903011E-1,-3.761059501E0,8.782077907E-1,3.916260692E0
6.356022167E0,1.038663282E0,-4.166477367E0,8.557796256E-1,4.378437373E0
6.365968167E0,1.258047890E0,-4.565425875E0,4.694423930E-1,4.758799646E0
6.375915167E0,1.208151552E0,-4.918724000E0,1.093749462E-1,5.066106872E0
6.385861167E0,1.204629482E0,-5.096601562E0,3.582909165E-1,5.249271574E0
6.395808167E0,1.294742384E0,-5.135607753E0,4.707077305E-1,5.317178820E0
6.405754167E0,1.228514773E0,-5.081061417E0,1.979380439E-1,5.231215265E0
6.415701167E0,1.254381393E0,-4.969260315E0,2.430475585E-1,5.130895914E0
6.425647167E0,1.469699116E0,-4.919841987E0,4.837196857E-1,5.157406849E0
6.435594167E0,1.546668647E0,-4.949950470E0,3.617578769E-1,5.198563487E0
6.445540167E0,1.406830146E0,-4.779383681E0,-1.031653494E-1,4.983204042E0
6.455487167E0,1.324069532E0,-4.395580047E0,-2.064885736E-2,4.590720037E0
6.465433167E0,1.425754659E0,-3.908742626E0,5.343746996E-1,4.194830341E0
6.475380167E0,1.668335171E0,-3.488195089E0,9.825638524E-1,3.989521143E0
6.485326167E0,1.994099635E0,-3.103713763E0,1.092139431E0,3.847368063E0
6.495273167E0,2.177149060E0,-2.629825585E0,8.531157804E-1,3.519057711E0
6.505219167E0,2.206233695E0,-2.105391153E0,5.179025084E-1,3.093276908E0
6.515166167E0,2.119429148E0,-1.681744591E0,2.884735537E-1,2.720930314E0
6.525112167E0,2.019406385E0,-1.295441272E0,3.721893096E-1,2.427899322E0
6.535059167E0,1.818770289E0,-9.706991941E-1,2.299967194E-1,2.074386845E0
6.545005167E0,1.521849555E0,-9.125831330E-1,-2.262580097E-1,1.788861853E0
6.554952167E0,1.276399814E0,-7.861844569E-1,-5.464784360E-1,1.595594299E0
6.564898167E0,1.153169525E0,-5.841999936E-1,-4.655600611E-1,1.373985356E0
6.574845167E0,1.096248635E0,-4.864409798E-1,-5.062040571E-1,1.301778954E0
6.584791167E0,8.149188441E-1,-4.148406547E-1,-4.994763239E-1,1.041951097E0
6.594738167E0,4.398679437E-1,-1.811590201E-1,-2.353786428E-1,5.307593654E-1
6.604684167E0,2.917641108E-1,6.348672867E-2,-1.520078726E-1,3.350570913E-1
6.614631167E0,3.336342314E-1,2.270783740E-1,-4.215023875E-1,5.835586097E-1
6.624577167E0,2.936895624E-1,2.411613929E-1,-8.707884049E-1,9.500972701E-1
6.634524167E0,2.555660087E-1,3.197538185E-1,-6.532694976E-1,7.709199217E-1
6.644470167E0,-9.695617279E-2,3.990274447E-1,-5.349990360E-1,6.744237315E-1
6.654417167E0,-4.613321587E-1,4.123222589E-1,-7.652332985E-1,9.840828253E-1
6.664363167E0,-7.966370127E-1,5.798461568E-1,-5.383907135E-1,1.122816395E0
6.674310167E0,-1.305731202E0,8.871822435E-1,-3.070465033E-1,1.608198949E0
6.684256167E0,-1.745527920E0,1.251184282E0,-4.203724131E-2,2.148044915E0
6.694203167E0,-2.005065796E0,1.359630252E0,-1.137109490E-1,2.425245028E0
6.704149167E0,-2.038132385E0,1.529539813E0,-6.208705142E-2,2.548986163E0
6.714096167E0,-2.157788052E0,1.559250101E0,-2.217264175E-2,2.662292580E0
6.724042167E0,-2.187165779E0,1.937909939E0,-3.013225177E-1,2.937683499E0
6.733989167E0,-1.995318926E0,2.321937522E0,-4.704994234E-1,3.097428155E0
6.743935167E0,-1.698429913E0,2.703084766E0,-8.978727078E-1,3.316248908E0
6.753882167E0,-1.580863456E0,4.175658665E0,-1.564840039E0,4.731170987E0
6.763828167E0,-1.905940288E0,9.710165809E0,-2.008746618E0,1.009727643E1
6.773775167E0,-2.638102904E0,1.478886788E1,-1.632757788E0,1.511079409E1
6.783721167E0,-4.650010819E0,1.289797072E1,-9.231793110E-1,1.374163416E1
6.793668167E0,-2.227414649E0,7.790529004E0,-3.461023663E0,8.810925205E0
6.803614167E0,-2.148111495E0,2.507028210E0,-4.237395322E0,5.371693639E0
6.813561167E0,-2.674386924E0,1.197761196E-1,-3.515909722E0,4.419085076E0
6.823507167E0,-2.884998954E0,-2.991073000E-1,-3.475411906E0,4.526717581E0
6.833454167E0,-3.488868688E0,4.913760298E-1,-2.793694681E0,4.496485861E0
6.843400167E0,-4.073154344E0,1.557108850E0,-2.066839875E0,4.825660716E0
6.853347167E0,-4.311338042E0,2.416539039E0,-1.718005368E0,5.232479248E0
6.863293167E0,-4.635324952E0,3.068874298E0,-1.194899715E0,5.686124532E0
6.873240167E0,-4.421989582E0,3.805779006E0,-4.492624824E-1,5.851476949E0
6.883186167E0,-3.163273209E0,4.526444827E0,2.982022972E-1,5.530273481E0
6.893133167E0,-1.927968211E0,4.864065982E0,9.419256306E-1,5.316335504E0
6.903079167E0,-1.007108636E0,4.828126656E0,8.004006462E-1,4.996570424E0
6.913026167E0,-7.887396902E-2,4.736677957E0,5.508463061E-1,4.769252649E0
6.922972167E0,5.738507143E-1,4.371510569E0,7.250512326E-1,4.468233273E0
6.932919167E0,7.695377263E-1,3.910353534E0,5.796555376E-1,4.027288619E0
6.942865167E0,6.734086239E-1,3.410908931E0,4.779280186E-1,3.509443561E0
6.952812167E0,3.185408136E-1,2.861669440E0,4.057219219E-1,2.907787907E0
6.962758167E0,-4.088762024E-1,2.270159258E0,3.133382535E-1,2.327871059E0
6.972705167E0,-1.151434876E0,1.525062600E0,-6.680560827E-2,1.912088177E0
6.982651167E0,-1.736138607E0,8.102054036E-1,-5.974147010E-1,2.006866808E0
6.992598167E0,-2.083568467E0,5.875691593E-2,-8.400928617E-1,2.247324175E0
7.002544167E0,-1.995938292E0,-7.047403443E-1,-1.504384507E0,2.596844501E0
7.012491167E0,-1.600437011E0,-1.467718956E0,-2.480290647E0,3.296579933E0
7.022437167E0,-1.084742996E0,-1.953360622E0,-2.980654432E0,3.725128981E0
7.032384167E0,-6.372830638E-1,-2.273755880E0,-2.651824565E0,3.550812446E0
7.042330167E0,-2.138619125E-1,-2.674826927E0,-1.927173282E0,3.303699875E0
7.052277167E0,1.762037972E-1,-3.154298025E0,-1.720230964E0,3.597198685E0
7.062223167E0,7.591694435E-1,-3.770657705E0,-2.569605696E0,4.625696835E0
7.072170167E0,1.294910637E0,-4.519042252E0,-3.118559259E0,5.641271867E0
7.082116167E0,1.543429289E0,-4.997757890E0,-1.850727954E0,5.548418861E0
7.092063167E0,1.292750384E0,-5.290582942E0,-7.080872905E-1,5.492072380E0
7.102009167E0,1.118237016E0,-5.594517703E0,-4.424954997E-1,5.722314621E0
7.111956167E0,1.019330487E0,-5.710768536E0,-5.048602939E-2,5.801246483E0
7.121902167E0,9.252932256E-1,-5.714155244E0,4.758054793E-1,5.808108862E0
7.131849167E0,1.067036311E0,-5.692342206E0,7.825286315E-1,5.844114761E0
7.141795167E0,1.368120116E0,-5.707509883E0,9.338927257E-1,5.943027624E0
7.151742167E0,1.698476983E0,-5.944817376E0,1.013963327E0,6.265285255E0
7.161688167E0,1.804312464E0,-6.291762502E0,1.158418790E0,6.647086049E0
7.171635167E0,1.776214254E0,-6.463269523E0,1.627363731E0,6.897615727E0
7.181581167E0,1.604692614E0,-6.492976887E0,1.939560024E0,6.963883997E0
7.191528167E0,1.323981970E0,-6.440393461E0,2.047468342E0,6.886488423E0
7.201474167E0,1.000697749E0,-6.332317620E0,2.028414897E0,6.724143769E0
7.211421167E0,7.462278011E-1,-6.126798515E0,1.835738032E0,6.439289564E0
7.221367167E0,7.295872101E-1,-5.987105609E0,1.609588780E0,6.242476040E0
7.231314167E0,7.382636011E-1,-5.872384408E0,1.467821867E0,6.097903968E0
7.241260167E0,6.413933641E-1,-5.627617621E0,1.258490378E0,5.802177485E0
7.251207167E0,7.983745129E-1,-5.444478149E0,7.350577189E-1,5.551581219E0
7.261153167E0,1.259011949E0,-5.274938132E0,6.814917418E-1,5.465758353E0
7.271100167E0,1.795731382E0,-4.986380378E0,1.351699673E0,5.469527628E0
7.281046167E0,1.892667693E0,-4.567347270E0,1.727482097E0,5.237083775E0
7.290993167E0,1.690652824E0,-3.811290007E0,1.192756564E0,4.336693061E0
7.300939167E0,1.489393708E0,-2.790588348E0,5.832550836E-1,3.216498630E0
7.310886167E0,1.436702109E0,-1.941744543E0,8.379169665E-2,2.416920741E0
7.320833542E0,1.644914734E0,-1.074282035E0,-4.853925741E-1,2.023717451E0
7.330780542E0,1.995414089E0,-1.154392397E-1,-9.176385625E-1,2.199332657E0
7.340726542E0,2.345409707E0,6.358706689E-1,-9.377928185E-1,2.604752113E0
7.350673542E0,2.431024054E0,1.020797553E0,-1.015146804E0,2.825319208E0
7.360619542E0,2.312393989E0,1.150282974E0,-1.347357384E0,2.913020563E0
7.370566542E0,1.886754111E0,1.215902182E0,-1.409125032E0,2.650262732E0
7.380512542E0,1.334735146E0,1.438629059E0,-1.368035624E0,2.392215071E0
7.390459542E0,9.225453267E-1,1.770407676E0,-1.756453588E0,2.659052919E0
7.400405542E0,6.556710953E-1,1.795903291E0,-2.129405082E0,2.861737098E0
7.410352542E0,1.853262941E-1,1.573479300E0,-2.247426745E0,2.749747246E0
7.420298542E0,-4.693036313E-1,1.114232551E0,-2.050566781E0,2.380458822E0
7.430245542E0,-1.015031029E0,5.344512981E-1,-1.858808660E0,2.184283822E0
7.440191542E0,-1.574505779E0,1.456161350E-1,-1.975116650E0,2.530090569E0
7.450138542E0,-2.226214801E0,7.963439941E-2,-1.735281990E0,2.823752390E0
7.460084542E0,-2.699715892E0,1.847807854E-1,-1.664019049E0,3.176723034E0
7.470031542E0,-3.027553779E0,4.801283258E-1,-1.512069795E0,3.418034546E0
7.479977542E0,-3.179565306E0,8.202269465E-1,-1.204264177E0,3.497521978E0
7.489924542E0,-3.021618270E0,1.241892471E0,-1.048150974E0,3.430902847E0
7.499870542E0,-2.652122773E0,1.626952087E0,-7.740120158E-1,3.206216290E0
7.509817542E0,-2.459614600E0,1.929569471E0,-6.632566881E-1,3.195755272E0
7.519763542E0,-2.242392585E0,2.236891524E0,-6.282575941E-1,3.229042552E0
7.529710542E0,-1.876228246E0,2.621182231E0,-3.012134671E-1,3.237523479E0
7.539656542E0,-1.688010760E0,4.722906595E0,7.808066265E-1,5.075912333E0
7.549603542E0,-1.443872842E0,1.181205506E1,2.561248856E0,1.217248575E1
7.559549542E0,-2.110681129E0,1.550472261E1,9.295470019E-1,1.567531357E1
7.569496542E0,-2.497570631E0,1.190351838E1,6.395077101E-1,1.217951473E1
7.579442542E0,-5.778916519E-2,5.891284947E0,-1.331537304E0,6.040163037E0
7.589389542E0,-2.572175547E-1,8.326926255E-1,-3.042116854E0,3.164492508E0
7.599335542E0,-3.903191499E-1,-1.151833071E0,-1.600039108E0,2.009774517E0
7.609282542E0,-2.735114059E-1,-1.735124992E0,-1.168412851E0,2.109657749E0
7.619228542E0,-9.733657437E-1,-1.359008693E0,-1.103451382E0,2.002985384E0
7.629175542E0,-2.277696026E0,-4.429499745E-1,-3.730267040E-1,2.350160163E0
7.639121542E0,-3.092585050E0,6.195148373E-1,3.198988295E-1,3.170207593E0
7.649068542E0,-3.463602577E0,1.764793180E0,6.359138652E-1,3.938962328E0
7.659014542E0,-3.393665200E0,2.840102570E0,9.971923435E-1,4.536247201E0
7.668961542E0,-2.959397756E0,3.530752294E0,1.355938904E0,4.802376199E0
7.678907542E0,-2.017442890E0,3.744450485E0,1.594800003E0,4.542507269E0
7.688854542E0,-7.201658839E-1,3.942323186E0,1.146159445E0,4.168240933E0
7.698800542E0,3.610945103E-1,4.173473561E0,-1.268156556E-1,4.190984731E0
7.708747542E0,1.197782831E0,4.143704216E0,-1.806092649E0,4.676209897E0
7.718693542E0,8.953408635E-1,3.643441004E0,-2.010677369E0,4.256656092E0
7.728640542E0,1.313450550E-1,2.843932496E0,-7.380156060E-1,2.941066236E0
7.738586542E0,-1.707854017E-1,2.412086969E0,-5.220055727E-1,2.473827200E0
7.748533542E0,-4.413578508E-1,2.088791492E0,-9.200944662E-1,2.324740948E0
7.758479542E0,-8.134905155E-1,1.708826555E0,-1.094530942E0,2.186287492E0
7.768426542E0,-1.063408333E0,1.418142754E0,-5.269335330E-1,1.849222837E0
7.778372542E0,-1.144397752E0,1.015830928E0,-9.818761468E-2,1.533362154E0
7.788319542E0,-1.206799822E0,6.551530319E-1,1.485251248E-2,1.373248667E0
7.798265542E0,-1.139858558E0,3.275423098E-1,-3.174862683E-2,1.186410331E0
7.808212542E0,-8.902896000E-1,2.170135617E-2,-7.609339871E-2,8.937990412E-1
7.818158542E0,-6.297445410E-1,-1.193247145E-1,2.014623070E-1,6.718657869E-1
7.828105542E0,-5.961183733E-1,-1.408629334E-1,4.006558943E-1,7.319321188E-1
7.838051542E0,-6.819318178E-1,-2.250441277E-1,5.796029127E-1,9.228301035E-1
7.847998542E0,-7.692206611E-1,-3.110543311E-1,6.712204497E-1,1.067235735E0
7.857944542E0,-7.693702036E-1,-3.614549911E-1,4.580135715E-1,9.655861704E-1
7.867891542E0,-5.731556265E-1,-2.595935708E-1,-8.253837521E-1,1.037860555E0
7.877837542E0,-5.921475291E-2,-4.279150289E-1,-2.619630673E0,2.655010832E0
7.887784542E0,1.707164776E-1,-9.361889273E-1,-1.951381778E0,2.171056118E0
7.897730542E0,1.316792965E-3,-1.645994714E0,-8.059837139E-1,1.832732954E0
7.907677542E0,-1.969469409E-1,-2.426410308E0,-4.049443884E-1,2.467840157E0
7.917623542E0,-3.276414201E-1,-3.324216943E0,-6.930868435E-1,3.411471318E0
7.927570542E0,-2.316950431E-1,-4.334347420E0,-1.071751944E0,4.470895032E0
7.937516542E0,1.411158255E-1,-5.175270002E0,-1.158830580E0,5.305301272E0
7.947463542E0,4.567314233E-1,-5.778383399E0,-1.092595660E0,5.898481464E0
7.957409542E0,5.316289933E-1,-6.106753675E0,-4.116517295E-1,6.143657459E0
7.967356542E0,5.687357162E-1,-6.231201720E0,1.116758256E-1,6.258099286E0
7.977302542E0,1.014656369E0,-6.727184771E0,6.212652013E-2,6.803558054E0
7.987249542E0,1.244124646E0,-7.268191382E0,-1.814996204E-1,7.376136808E0
7.997195542E0,8.294620389E-1,-7.229859960E0,3.400869262E-1,7.285227617E0
8.007142542E0,5.516160920E-1,-6.691803854E0,5.253477681E-1,6.735021114E0
8.017088542E0,7.165118127E-1,-5.936611978E0,5.365859704E-1,6.003721801E0
8.027035542E0,9.542283916E-1,-5.086670067E0,9.439813654E-1,5.260785589E0
8.036981542E0,1.121386181E0,-4.236881937E0,1.381453668E0,4.595333475E0
8.046928542E0,1.628119484E0,-3.723113995E0,1.469177252E0,4.320975893E0
8.056874542E0,2.056111842E0,-3.342105914E0,1.184972312E0,4.098954407E0
8.066821542E0,2.231438703E0,-2.872876799E0,1.071936132E0,3.792332641E0
8.076767542E0,2.315462023E0,-2.333609734E0,1.544815080E0,3.632292994E0
8.086714542E0,2.512481908E0,-1.867583722E0,1.346282812E0,3.407772250E0
8.096660542E0,2.893474785E0,-1.620205570E0,8.086541373E-1,3.413383063E0
8.106607542E0,3.007964145E0,-1.283669073E0,5.337384860E-1,3.313688482E0
8.116553542E0,2.800497332E0,-9.438633978E-1,3.323627543E-1,2.973907937E0
8.126500542E0,2.657195817E0,-6.248170924E-1,2.946178079E-1,2.745521018E0
8.136446542E0,2.575760768E0,-2.221994573E-1,2.115524450E-2,2.585413637E0
8.146393542E0,2.489495333E0,1.001920402E-2,-4.504648161E-1,2.529941887E0
8.156339542E0,2.255859161E0,6.444801092E-3,-7.107758403E-1,2.365194365E0
8.166286542E0,1.828210765E0,-2.269824797E-1,-7.117545911E-1,1.974960821E0
8.176232542E0,1.425595907E0,-6.853843063E-1,-5.913452546E-1,1.688716835E0
8.186179542E0,1.070433690E0,-1.230392168E0,-6.096084845E-1,1.741067395E0
8.196126542E0,5.779362369E-1,-1.726312069E0,-7.908394253E-1,1.984840207E0
8.206072542E0,9.794992536E-2,-1.950670903E0,-8.896515226E-1,2.146203856E0
8.216019542E0,-2.898146491E-1,-1.845070773E0,-6.712743902E-1,1.984663194E0
8.225965542E0,-3.680966241E-1,-1.631681900E0,-5.276714150E-1,1.753943577E0
8.235912542E0,-3.514726245E-1,-1.393741153E0,-4.897253609E-1,1.518511883E0
8.245858542E0,-5.833346057E-1,-1.177031647E0,-4.499221945E-1,1.388564994E0
8.255805542E0,-7.656668696E-1,-9.990464956E-1,-4.494112209E-1,1.336529125E0
8.265751542E0,-1.041258130E0,-7.763985568E-1,-7.253716600E-1,1.487675118E0
8.275698542E0,-1.173361350E0,-5.042200238E-1,-9.444421991E-1,1.588390933E0
8.285644542E0,-1.335893480E0,-1.989064890E-1,-1.083341637E0,1.731416843E0
8.295591542E0,-1.807756181E0,1.743131000E-1,-9.744700634E-1,2.061057829E0
8.305537542E0,-2.173349832E0,7.184824705E-1,-6.350216532E-1,2.375482909E0
8.315484542E0,-2.217153955E0,1.353454422E0,-6.788826410E-1,2.684863530E0
8.325429542E0,-2.099392786E0,1.981280492E0,-1.149898081E0,3.107279848E0
8.335376542E0,-2.408337150E0,2.813111823E0,-1.258346390E0,3.911153486E0
8.345322542E0,-2.759602490E0,3.621129783E0,-7.602383146E-1,4.615836772E0
8.355269542E0,-2.793791453E0,4.186226338E0,-5.752256870E-1,5.065633842E0
8.365215542E0,-2.783199221E0,5.090483036E0,-6.912312296E-1,5.842689112E0
8.375162542E0,-3.236884684E0,8.550638387E0,-2.041211821E0,9.367891171E0
8.385108542E0,-3.043342723E0,1.403203352E1,-3.995284342E0,1.490376451E1
8.395055542E0,-2.922802372E0,1.454384732E1,-1.384242936E0,1.489907370E1
8.405001542E0,-2.586677227E0,8.753379480E0,-1.906648239E0,9.324583578E0
8.414948542E0,-1.119457038E0,4.731945806E0,-3.248963277E0,5.848098626E0
8.424894542E0,-1.314838825E0,3.301435021E0,-2.259686602E0,4.211229972E0
8.434841542E0,-1.482365355E0,3.382564554E0,-1.209615841E0,3.886170414E0
8.444787542E0,-1.730582875E0,3.493558740E0,-1.040507201E0,4.035161086E0
8.454734542E0,-1.999707115E0,3.426972987E0,-1.083537885E0,4.113031333E0
8.464680542E0,-1.942545319E0,3.173587990E0,-7.217006318E-1,3.790249972E0
8.474627542E0,-1.838694676E0,2.864313551E0,-6.021322346E-1,3.456537785E0
8.484573542E0,-1.715193588E0,2.493464423E0,-6.001395035E-1,3.085355944E0
8.494520542E0,-1.255466198E0,2.193309302E0,-2.330570059E-1,2.537935507E0
8.504466542E0,-4.837151175E-1,1.872583092E0,1.292728018E-1,1.938365086E0
8.514413542E0,5.902570512E-1,1.417794260E0,-7.159960882E-1,1.694459899E0
8.524359542E0,1.038435679E0,1.129808949E0,-1.728165636E0,2.311141144E0
8.534306542E0,9.002555213E-1,9.590556335E-1,-1.584788400E0,2.059563542E0
8.544252542E0,5.028190309E-1,1.021005129E0,-1.480699775E0,1.867551947E0
8.554199542E0,4.103678271E-1,7.224568230E-1,-1.711870615E0,1.902852233E0
8.564145542E0,8.261992195E-1,1.574976772E-1,-1.671704922E0,1.871365281E0
8.574092542E0,5.776397100E-1,-8.869758368E-2,-1.066660774E0,1.216264816E0
8.584038542E0,-1.766443849E-3,-3.918090570E-1,-9.188700593E-1,9.989192376E-1
8.593985542E0,-7.137041259E-1,-6.358542967E-1,-1.208051126E0,1.540477779E0
8.603931542E0,-1.658697206E0,-8.154702365E-1,-1.379275142E0,2.306223763E0
8.613878542E0,-2.178775171E0,-1.191641500E0,-1.406749600E0,2.854122483E0
8.623824542E0,-2.183802899E0,-1.739529115E0,-8.437157965E-1,2.916644131E0
8.633771542E0,-1.662118996E0,-2.283270469E0,1.165452406E-2,2.824198899E0
8.643717542E0,-1.117692056E0,-2.474307191E0,3.980234778E-1,2.744057998E0
8.653664542E0,-1.124697020E0,-2.825799111E0,3.657433391E-1,3.063307395E0
8.663610542E0,-1.141702843E0,-3.330995035E0,1.257828180E-1,3.523469118E0
8.673557542E0,-8.321068076E-1,-3.694880714E0,4.360561073E-4,3.787419361E0
8.683503542E0,-1.658352220E-1,-4.182060782E0,-2.218304980E-1,4.191222074E0
8.693450542E0,4.264046931E-1,-4.535153670E0,-2.044584203E-1,4.559741551E0
8.703396542E0,8.647741051E-1,-4.837512606E0,-1.303125098E-2,4.914217362E0
8.713343542E0,1.386292970E0,-5.050738342E0,2.333424962E-1,5.242729701E0
8.723289542E0,2.032596387E0,-5.050230219E0,3.289962199E-1,5.453852936E0
8.733236542E0,2.068699143E0,-4.892011580E0,2.356707112E-1,5.316656292E0
8.743182542E0,2.019933072E0,-4.439632970E0,5.765375099E-1,4.911503439E0
8.753129542E0,2.228748253E0,-3.865327050E0,7.906549457E-1,4.531358210E0
8.763075542E0,1.813495516E0,-3.647516513E0,6.150404017E-1,4.119638017E0
8.773022542E0,1.585652911E0,-3.532901731E0,1.040033577E0,4.009658294E0
8.782968542E0,1.946504469E0,-3.242124374E0,1.087612517E0,3.934863542E0
8.792915542E0,2.398629310E0,-2.980614671E0,7.410445368E-1,3.897003129E0
8.802861542E0,2.730434240E0,-2.867885031E0,8.652908528E-1,4.053241166E0
8.812808542E0,2.888422498E0,-2.743387284E0,7.620325327E-1,4.055841701E0
8.822754542E0,2.960223968E0,-2.706735767E0,7.473348252E-1,4.080178157E0
8.832701542E0,3.160735810E0,-2.742778004E0,5.968089294E-1,4.227205098E0
8.842647542E0,2.833962409E0,-2.737060012E0,2.620067167E-1,3.948605825E0
8.852594542E0,2.500756194E0,-2.568032795E0,4.121449421E-1,3.608107181E0
8.862540542E0,2.245217667E0,-2.316251689E0,4.822760081E-1,3.261688889E0
8.872487542E0,1.902712332E0,-2.084416021E0,4.797850212E-1,2.862743096E0
8.882433542E0,1.441318193E0,-1.945837010E0,4.293715703E-1,2.459276265E0
8.892380542E0,1.142001270E0,-1.745886793E0,2.311194579E-1,2.098976845E0
8.902326542E0,8.919126409E-1,-1.620567513E0,2.585347132E-1,1.867776062E0
8.912273542E0,9.367710176E-1,-1.616555153E0,2.553725389E-1,1.885737425E0
8.922219542E0,1.006074264E0,-1.578531879E0,2.111075085E-2,1.872002666E0
8.932166542E0,8.387924409E-1,-1.345756563E0,-1.163853558E-1,1.590024854E0
8.942112542E0,7.114473930E-1,-1.216457668E0,1.073552448E-2,1.409269989E0
8.952059542E0,7.054130664E-1,-1.201448450E0,-3.214962888E-1,1.429841193E0
8.962005542E0,4.785656940E-1,-1.301238787E0,-6.892838144E-1,1.548340944E0
8.971952542E0,4.948648442E-2,-1.298496442E0,-4.442457175E-1,1.373279353E0
8.981898542E0,-1.345078871E-1,-1.155690479E0,-3.233323145E-1,1.207582975E0
8.991845542E0,-1.825286938E-1,-1.055756301E0,-4.823485136E-1,1.174988587E0
9.001791542E0,-4.708245286E-1,-8.771033978E-1,-6.130185807E-1,1.169092763E0
9.011738542E0,-9.712005197E-1,-5.514865762E-1,-6.052253751E-1,1.270301400E0
9.021684542E0,-1.307137165E0,-1.051177347E-1,-3.900361447E-1,1.368132121E0
9.031631542E0,-1.293775985E0,1.920670009E-1,-2.414433018E-1,1.330052969E0
9.041578542E0,-1.184409737E0,3.690511090E-1,-4.253686396E-1,1.311473837E0
9.051524542E0,-1.261004973E0,6.612967014E-1,-6.445969804E-1,1.562994605E0
9.061471542E0,-1.383804980E0,9.954487038E-1,-7.299990003E-1,1.854382076E0
9.071417542E0,-1.519511108E0,1.327364146E0,-5.596742130E-1,2.093811073E0
9.081364542E0,-1.552548315E0,1.396239669E0,-6.172297454E-1,2.177352530E0
9.091310542E0,-1.655092690E0,1.502689399E0,-7.084534724E-1,2.345061527E0
9.101257542E0,-1.714470580E0,1.885104904E0,-7.561318150E-1,2.657962601E0
9.111203542E0,-1.703141892E0,2.373256779E0,-8.343203442E-1,3.037948400E0
9.121150542E0,-1.901034766E0,2.833418618E0,-7.761276846E-1,3.499223975E0
9.131096542E0,-2.138194325E0,3.295638092E0,-8.339695112E-1,4.016044141E0
9.141043542E0,-2.060633494E0,3.760366606E0,-1.018577658E0,4.407274424E0
9.150989542E0,-2.082204896E0,4.433422642E0,-1.108719796E0,5.021959094E0
9.160936542E0,-2.239083938E0,5.494223921E0,-1.610882038E0,6.147758479E0
9.170882542E0,-2.331405918E0,7.074310575E0,-1.939592622E0,7.696969742E0
9.180829542E0,-2.590697188E0,7.568086302E0,-1.454375610E0,8.130365958E0
9.190775542E0,-2.715001684E0,5.834701442E0,-1.786893608E0,6.678919360E0
9.200722542E0,-2.546728757E0,4.073786720E0,-1.931133016E0,5.177918533E0
9.210668542E0,-2.436453194E0,3.725603739E0,-1.353887993E0,4.652895882E0
9.220615542E0,-2.151590296E0,3.765744874E0,-1.082772046E0,4.470186860E0
9.230561542E0,-1.651253700E0,3.498462800E0,-1.138741594E0,4.032693041E0
9.240508542E0,-1.746128429E0,3.324658992E0,-9.024167253E-1,3.862211523E0
9.250454542E0,-1.632109624E0,3.075712616E0,-8.420319445E-1,3.582290848E0
9.260401542E0,-1.551481782E0,2.827313540E0,-8.688903987E-1,3.340025165E0
9.270347542E0,-1.606721013E0,2.795712848E0,-7.109116419E-1,3.301962765E0
9.280294542E0,-1.569954599E0,2.666791683E0,-8.305010891E-1,3.204101649E0
9.290240542E0,-1.542299900E0,2.404466293E0,-1.687542690E0,3.317822699E0
9.300187542E0,-1.769266007E0,2.121173372E0,-1.379006170E0,3.087286300E0
9.310133542E0,-1.917505496E0,1.847667521E0,-9.893056190E-1,2.840673899E0
9.320080292E0,-1.784343345E0,1.499177561E0,-1.200587667E0,2.621607385E0
9.330026292E0,-1.806031253E0,1.041943424E0,-1.036917084E0,2.328645964E0
9.339973292E0,-1.614842796E0,7.976280427E-1,-8.164338577E-1,1.977496396E0
9.349919292E0,-1.326584420E0,5.670723295E-1,-5.218967414E-1,1.534201245E0
9.359866292E0,-1.135987701E0,3.628741103E-1,-5.006994152E-1,1.293385319E0
9.369812292E0,-8.328874840E-1,2.308270240E-1,-3.625507593E-1,9.372436871E-1
9.379759292E0,-5.385667147E-1,-6.547185838E-2,-1.821407676E-1,5.722900747E-1
9.389705292E0,-4.750649294E-1,-4.765814048E-1,-5.380432427E-1,8.615724308E-1
9.399652292E0,-5.160470407E-1,-8.315021324E-1,-7.296857357E-1,1.220713569E0
9.409598292E0,-6.257777900E-1,-1.143441147E0,-4.933822095E-1,1.393729351E0
9.419545292E0,-7.178246588E-1,-1.476248875E0,-1.311208874E-1,1.646746996E0
9.429491292E0,-6.053406018E-1,-1.727340009E0,-2.453900993E-1,1.846715206E0
9.439438292E0,-2.589663108E-1,-1.931954550E0,-2.411670940E-1,1.964096103E0
9.449384292E0,-1.639676213E-1,-2.324172328E0,-2.217619394E-1,2.340478743E0
9.459331292E0,-1.404065582E-1,-2.720177931E0,-1.421903975E-1,2.727508036E0
9.469277292E0,6.352765918E-2,-3.037921477E0,-4.170014933E-2,3.038871759E0
9.479224292E0,3.837276202E-1,-3.391333623E0,-1.348176433E-1,3.415635581E0
9.489170292E0,6.193385437E-1,-3.660679765E0,-1.732589932E-1,3.716742559E0
9.499117292E0,9.215884298E-1,-3.875449165E0,-4.055044055E-2,3.983726372E0
9.509063292E0,1.347661878E0,-3.994899595E0,1.651487589E-2,4.216122395E0
9.519010292E0,1.692502591E0,-3.936377152E0,2.909106731E-2,4.284912647E0
9.528956292E0,1.956868074E0,-3.891435453E0,2.177807164E-1,4.361196050E0
9.538903292E0,2.202770097E0,-3.962840481E0,3.528730327E-1,4.547616975E0
9.548849292E0,2.366694157E0,-4.132482240E0,3.824918112E-1,4.777546513E0
9.558796292E0,2.604714718E0,-4.172146243E0,3.374451542E-1,4.930031670E0
9.568742292E0,2.675628872E0,-4.033849068E0,4.459899420E-1,4.861052889E0
9.578689292E0,2.433584550E0,-3.842705342E0,5.298390144E-1,4.579240929E0
9.588635292E0,2.734102198E0,-3.552103402E0,7.563619030E-1,4.545859296E0
9.598582292E0,2.543263990E0,-3.469484584E0,4.284463947E-1,4.323087012E0
9.608528292E0,2.027586493E0,-3.674657534E0,4.073613350E-1,4.216652492E0
9.618475292E0,1.986613737E0,-3.641330159E0,4.200031614E-1,4.169211211E0
9.628421292E0,2.029850973E0,-3.517256920E0,3.510539639E-1,4.076104771E0
9.638368292E0,2.225410809E0,-3.310858979E0,5.030605209E-1,4.020859402E0
9.648314292E0,2.213224480E0,-3.073616390E0,5.108441882E-1,3.821837529E0
9.658261292E0,2.105781162E0,-2.857389278E0,6.916472590E-1,3.616263779E0
9.668207292E0,1.926641624E0,-2.660506511E0,7.023980959E-1,3.359107906E0
9.678154292E0,1.652786109E0,-2.484607061E0,6.308863561E-1,3.050080616E0
9.688101292E0,1.310025544E0,-2.226394603E0,4.710188755E-1,2.625806282E0
9.698047292E0,9.536310254E-1,-1.956056773E0,4.537999948E-1,2.222949542E0
9.707994292E0,7.253472479E-1,-1.757713371E0,5.572108541E-1,1.981456247E0
9.717940292E0,6.220053126E-1,-1.639183878E0,3.144633309E-1,1.781207899E0
9.727887292E0,5.533666022E-1,-1.519362735E0,2.004630909E-1,1.629375085E0
9.737833292E0,5.060389464E-1,-1.354637314E0,3.315265294E-1,1.483586030E0
9.747780292E0,4.849699666E-1,-1.187667148E0,3.940367731E-1,1.342018666E0
9.757726292E0,3.778431286E-1,-1.090626172E0,2.960012225E-1,1.191573582E0
9.767673292E0,2.186216922E-1,-9.421478248E-1,2.395907577E-1,9.964144214E-1
9.777619292E0,3.349723667E-3,-9.460502565E-1,3.333766250E-1,1.003076409E0
9.787566292E0,-2.130001791E-1,-1.029103523E0,2.614348225E-1,1.082945660E0
9.797512292E0,-3.290821740E-1,-9.977180082E-1,6.057832360E-2,1.052333614E0
9.807459292E0,-5.217903952E-1,-9.489294255E-1,-3.324845592E-2,1.083437922E0
9.817405292E0,-6.118307188E-1,-9.059021044E-1,-5.782077670E-2,1.094686573E0
9.827352292E0,-4.881197885E-1,-9.688678461E-1,-2.180251300E-1,1.106571637E0
9.837298292E0,-5.485869420E-1,-1.056615257E0,-3.858367109E-1,1.251500460E0
9.847245292E0,-7.139757290E-1,-1.048209885E0,-2.849406660E-1,1.299883259E0
9.857191292E0,-9.162554768E-1,-1.068913121E0,-4.469377756E-1,1.477109588E0
9.867138292E0,-1.112219062E0,-1.063337801E0,-5.721242873E-1,1.641659137E0
9.877084292E0,-1.459964671E0,-8.522883993E-1,-4.983792035E-1,1.762462535E0
9.887031292E0,-1.701619569E0,-3.064484793E-1,-6.749533852E-1,1.856066244E0
9.896977292E0,-1.668755294E0,1.214817524E-2,-6.006903843E-1,1.773617982E0
9.906924292E0,-1.670108924E0,1.761111188E-1,-6.782162046E-1,1.811147748E0
9.916870292E0,-1.572110759E0,3.539109135E-1,-7.541763599E-1,1.779204079E0
9.926817292E0,-1.448369643E0,5.832340336E-1,-8.513358879E-1,1.778400786E0
9.936763292E0,-1.395588581E0,1.040887417E0,-8.790902817E-1,1.950362486E0
9.946710292E0,-1.338282652E0,1.330464925E0,-8.273753138E-1,2.060506560E0
9.956656292E0,-1.497036311E0,1.555528933E0,-8.855820067E-1,2.333461692E0
9.966603292E0,-1.649415628E0,2.047440568E0,-9.749764323E-1,2.804133348E0
9.976549292E0,-1.725704397E0,2.799909979E0,-1.033464523E0,3.447549924E0
9.986496292E0,-2.370731952E0,4.735997341E0,-1.662898576E0,5.551150554E0
9.996442292E0,-3.441442507E0,1.033950280E1,-3.500628024E0,1.144566474E1
1.000638929E1,-3.052388658E0,1.513858750E1,-1.614862092E0,1.552744949E1
1.001633529E1,-3.310643509E0,1.269386313E1,-3.192254641E0,1.350129665E1
1.002628229E1,-9.919710723E-1,6.155600730E0,-4.166412463E0,7.498961246E0
1.003622829E1,-1.778805593E-1,2.142874728E0,-3.153732307E0,3.817012059E0
1.004617529E1,-7.296711908E-1,5.552732331E-1,-2.528691851E0,2.689801273E0
1.005612129E1,-1.602628840E0,9.743577969E-1,-1.031009423E0,2.140273988E0
1.006606829E1,-2.755522011E0,2.092796250E0,-1.136671679E0,3.642076359E0
1.007601429E1,-3.423560552E0,2.593968120E0,-1.538001027E0,4.562333243E0
1.008596129E1,-4.133357861E0,2.823228675E0,-1.004748116E0,5.105368364E0
1.009590729E1,-4.211944147E0,3.193263870E0,-4.911241610E-1,5.308352907E0
1.010585429E1,-3.240060599E0,3.260982229E0,-1.107399348E0,4.728459697E0
1.011580029E1,-2.141920463E0,3.077001343E0,-1.630207232E0,4.088194730E0
1.012574729E1,-1.493496699E0,2.903250745E0,-1.297161523E0,3.513121873E0
1.013569329E1,-9.459417906E-1,2.787358931E0,-1.205761356E0,3.180886060E0
1.014564029E1,-6.807878101E-1,2.768313965E0,-1.290715553E0,3.129373881E0
1.015558629E1,-7.073329997E-1,2.637449185E0,-1.146531401E0,2.961586134E0
1.016553329E1,-6.455247874E-1,2.356085846E0,-1.082594363E0,2.672050396E0
1.017548029E1,-7.326776098E-1,2.057815867E0,-1.106750308E0,2.448738219E0
1.018542629E1,-9.449750266E-1,1.700267985E0,-1.119977952E0,2.244602334E0
1.019537329E1,-1.105378405E0,1.221196836E0,-1.091189843E0,1.975823475E0
1.020531929E1,-1.258589634E0,7.149156690E-1,-1.133985615E0,1.838770148E0
1.021526629E1,-1.188736676E0,3.736259705E-1,-1.020256101E0,1.610470044E0
1.022521229E1,-1.074868364E0,1.125781971E-1,-8.766625178E-1,1.391600884E0
1.023515929E1,-1.095872148E0,-1.155994534E-1,-8.478351599E-1,1.390368101E0
1.024510529E1,-1.106670639E0,-4.356356925E-1,-6.579427385E-1,1.359186156E0
1.025505229E1,-8.729884198E-1,-9.547345412E-1,-7.903757411E-1,1.516021318E0
1.026499829E1,-5.585160989E-1,-1.501315888E0,-1.046569741E0,1.913425685E0
1.027494529E1,-3.014223589E-1,-1.872985380E0,-9.879093770E-1,2.138900327E0
1.028489129E1,-2.853479245E-1,-2.221528550E0,-7.378069335E-1,2.358171242E0
1.029483829E1,-2.677796727E-1,-2.549645641E0,-3.453295398E-1,2.586822634E0
1.030478429E1,-2.992947033E-1,-2.760820173E0,-3.303431261E-1,2.796575035E0
1.031473129E1,-3.116391988E-1,-2.856423318E0,-3.507939090E-1,2.894707158E0
1.032467733E1,-6.360630423E-2,-2.880358896E0,-2.245610015E-1,2.889799435E0
1.033462433E1,3.701951167E-1,-3.104988456E0,-2.298363595E-1,3.135414245E0
1.034457033E1,4.455062310E-1,-3.373561011E0,-1.580679269E-1,3.406519509E0
1.035451733E1,3.707786688E-1,-3.620213524E0,1.349712789E-1,3.641653474E0
1.036446333E1,6.057373354E-1,-3.822073442E0,3.617745414E-1,3.886649448E0
1.037441033E1,8.138219064E-1,-3.903847922E0,4.388335347E-1,4.011846154E0
1.038435633E1,1.217823285E0,-3.879130572E0,5.490477026E-1,4.102706537E0
1.039430333E1,1.683133597E0,-3.913557224E0,3.890082407E-1,4.277872866E0
1.040424933E1,1.751894807E0,-4.015678845E0,4.910503399E-1,4.408621376E0
1.041419633E1,1.828523737E0,-3.944109510E0,7.691345608E-1,4.414868838E0
1.042414233E1,2.201468507E0,-3.758162205E0,8.836522794E-1,4.444219628E0
1.043408933E1,2.600139856E0,-3.472635064E0,9.534643798E-1,4.441735683E0
1.044403533E1,3.007473271E0,-3.396913036E0,9.174082553E-1,4.628774304E0
1.045398233E1,3.323172922E0,-3.471683137E0,8.896111768E-1,4.887480959E0
1.046392833E1,3.348929030E0,-3.347304674E0,1.227122697E0,4.891380617E0
1.047387533E1,3.522193432E0,-3.270524300E0,1.341289290E0,4.990113499E0
1.048382133E1,3.619660085E0,-3.197580285E0,1.219551430E0,4.981341637E0
1.049376833E1,3.400259982E0,-3.321472260E0,1.124812795E0,4.884582863E0
1.050371433E1,3.198580744E0,-3.457479665E0,9.846258000E-1,4.811919822E0
1.051366133E1,2.957538049E0,-3.483027905E0,9.022521262E-1,4.657528701E0
1.052360733E1,2.561116416E0,-3.504386614E0,8.645248675E-1,4.425770677E0
1.053355433E1,2.176779078E0,-3.383297794E0,8.280474512E-1,4.107399871E0
1.054350033E1,1.929444487E0,-3.189112932E0,7.041075294E-1,3.793278890E0
1.055344733E1,1.680452064E0,-3.055795830E0,6.521621811E-1,3.547833537E0
1.056339433E1,1.578834180E0,-2.930569521E0,5.289087224E-1,3.370563680E0
1.057334033E1,1.691602266E0,-2.754404608E0,3.363515787E-1,3.249830050E0
1.058328733E1,1.727819481E0,-2.604890134E0,2.275221777E-1,3.134099410E0
1.059323333E1,1.694351773E0,-2.514292206E0,3.968388319E-2,3.032172164E0
1.060318033E1,1.465995197E0,-2.336836812E0,-6.277811922E-2,2.759327689E0
1.061312633E1,1.269446890E0,-2.145672036E0,-1.839567666E-1,2.499848793E0
1.062307333E1,1.118432021E0,-1.907388643E0,-4.056184262E-1,2.248009771E0
1.063301933E1,8.132588196E-1,-1.642822600E0,-6.025427091E-1,1.929589003E0
1.064296633E1,6.098271704E-1,-1.450222918E0,-4.782677418E-1,1.644316187E0
1.065291233E1,3.535591669E-1,-1.394845108E0,-5.878428455E-1,1.554398974E0
1.066285933E1,7.011597287E-2,-1.302195391E0,-6.966431201E-1,1.478492720E0
1.067280533E1,-2.127205543E-1,-1.292617652E0,-5.157747431E-1,1.407882812E0
1.068275233E1,-5.172429425E-1,-1.265953764E0,-3.770062459E-1,1.418560151E0
1.069269833E1,-7.158488846E-1,-9.793823093E-1,-3.521169877E-1,1.263176831E0
1.070264533E1,-8.798749781E-1,-6.153826100E-1,-3.429368591E-1,1.127156344E0
1.071259133E1,-9.637187880E-1,-4.015423322E-1,-5.214465058E-1,1.167003258E0
1.072253833E1,-9.402255526E-1,-3.913728547E-1,-5.544493604E-1,1.159573583E0
1.073248433E1,-9.760529047E-1,-4.611851013E-1,-4.900457883E-1,1.185544535E0
1.074243133E1,-1.270695271E0,-4.943013918E-1,-3.622384815E-1,1.410750529E0
1.075237733E1,-1.632407539E0,-2.720545721E-1,-1.679168308E-1,1.663419408E0
1.076232433E1,-1.773767779E0,5.539885998E-2,-4.243331708E-2,1.775139925E0
1.077227033E1,-1.848085890E0,1.660387051E-1,-2.045858896E-1,1.866774141E0
1.078221733E1,-2.015594292E0,3.136598504E-1,-3.118857320E-1,2.063558955E0
1.079216333E1,-2.016266722E0,5.104777139E-1,-3.553773952E-1,2.110026560E0
1.080211033E1,-2.072637828E0,6.937352997E-1,-3.876810689E-1,2.219773151E0
1.081205633E1,-1.989917707E0,9.170872432E-1,-4.974587421E-1,2.246839267E0
1.082200333E1,-1.902765250E0,1.029720404E0,-8.153252256E-1,2.312054266E0
1.083194933E1,-2.326094161E0,1.362913463E0,-9.023515289E-1,2.842971234E0
1.084189633E1,-2.662539588E0,1.978114225E0,-1.017032969E0,3.469352822E0
1.085184233E1,-2.645722995E0,2.446812998E0,-1.180044132E0,3.791997913E0
1.086178933E1,-2.635917799E0,2.781105334E0,-1.434939758E0,4.091657565E0
1.087173533E1,-3.086786073E0,4.722071028E0,-2.137760754E0,6.032928318E0
1.088168233E1,-4.097058931E0,1.082404753E1,-3.011704316E0,1.195894057E1
1.089162833E1,-5.530217042E0,1.423450271E1,-1.363491022E0,1.533177993E1
1.090157533E1,-4.365741706E0,1.169091362E1,-3.448802105E0,1.294725445E1
1.091152133E1,-1.546784129E0,5.959197434E0,-4.741979628E0,7.771161173E0
1.092146833E1,-5.421903804E-1,2.447348603E0,-3.480824089E0,4.289478049E0
1.093141433E1,-3.632887510E-1,1.880978524E0,-1.800870208E0,2.629295044E0
1.094136133E1,-1.453837959E0,2.570379283E0,-7.427030995E-1,3.045012703E0
1.095130733E1,-2.335460377E0,3.197907729E0,-6.402945261E-1,4.011354646E0
1.096125433E1,-2.716099498E0,3.053658673E0,-9.598540708E-1,4.198017105E0
1.097120133E1,-3.229109641E0,2.762231691E0,-9.478291257E-1,4.353786058E0
1.098114733E1,-3.020300893E0,2.711166787E0,-9.613442338E-1,4.170950199E0
1.099109433E1,-2.433874864E0,2.449267659E0,-1.256321207E0,3.674370952E0
1.100104033E1,-2.113669933E0,2.222914925E0,-1.314089359E0,3.337031943E0
1.101098733E1,-1.775307935E0,2.116975071E0,-1.181612502E0,3.004914279E0
1.102093333E1,-1.654532526E0,2.066020095E0,-9.442750418E-1,2.810261958E0
1.103088033E1,-1.690463082E0,2.020275573E0,-5.591822429E-1,2.692928444E0
1.104082633E1,-1.563119788E0,1.951235159E0,-6.569580674E-1,2.585006000E0
1.105077333E1,-1.286557890E0,1.940451139E0,-7.334326315E-1,2.441004968E0
1.106071933E1,-1.014921174E0,1.961774181E0,-7.099407117E-1,2.320051452E0
1.107066633E1,-9.160666117E-1,1.957872334E0,-7.780585814E-1,2.297350053E0
1.108061233E1,-8.237180997E-1,1.899780246E0,-1.088418263E0,2.339301350E0
1.109055933E1,-5.924722689E-1,1.723480847E0,-1.748917258E0,2.525890179E0
1.110050533E1,-2.779325587E-1,1.341426115E0,-2.086439742E0,2.495977028E0
1.111045233E1,-2.110415080E-1,7.604374123E-1,-1.384059334E0,1.593243175E0
1.112039833E1,-2.898100810E-1,3.778353810E-2,-9.979437107E-1,1.039860149E0
1.113034533E1,-7.432308108E-2,-7.077645242E-1,-1.052760188E0,1.270731504E0
1.114029133E1,3.873651731E-1,-1.325533383E0,-1.086267073E0,1.757005031E0
1.115023833E1,3.501356587E-1,-1.858612339E0,-9.247710693E-1,2.105287709E0
1.116018433E1,3.024864060E-1,-2.390147046E0,-7.097256804E-1,2.511575496E0
1.117013133E1,3.889019676E-1,-3.000506898E0,-7.306375162E-1,3.112574106E0
1.118007733E1,4.126599357E-1,-3.675708278E0,-8.852965164E-1,3.803270894E0
1.119002433E1,5.040717968E-1,-4.246067328E0,-8.440315461E-1,4.358390228E0
1.119997033E1,6.529695354E-1,-4.750646371E0,-6.545944767E-1,4.839783475E0
1.120991733E1,8.548158583E-1,-5.266129886E0,-2.756839389E-1,5.342175190E0
1.121986333E1,1.245162673E0,-5.648453590E0,2.059374735E-2,5.784105993E0
1.122981033E1,1.750864235E0,-5.832190062E0,3.751632035E-1,6.100878127E0
1.123975633E1,1.997349518E0,-5.753568985E0,7.168709779E-1,6.132443654E0
1.124970333E1,2.116634179E0,-5.490480534E0,9.512940395E-1,5.960744676E0
1.125964933E1,2.491580743E0,-5.215898210E0,1.221550008E0,5.908109102E0
1.126959633E1,2.832685085E0,-4.989400465E0,1.418067325E0,5.910087709E0
1.127954233E1,2.913252700E0,-4.749436582E0,1.327855166E0,5.727773431E0
1.128948933E1,2.742475703E0,-4.449931086E0,1.229604548E0,5.369821878E0
1.129943533E1,2.585308686E0,-3.997141417E0,1.332272737E0,4.943269278E0
1.130938233E1,2.690120319E0,-3.477749623E0,1.411504995E0,4.617773936E0
1.131932833E1,2.889719996E0,-3.092026348E0,1.354871787E0,4.443735608E0
1.132927508E1,2.865387977E0,-2.742815427E0,1.370873278E0,4.196758066E0
1.133922208E1,2.908039030E0,-2.428700078E0,1.174562222E0,3.966720494E0
1.134916808E1,2.793890855E0,-2.409319482E0,1.085226122E0,3.845563966E0
1.135911508E1,2.443863078E0,-2.277147265E0,1.012299210E0,3.490360454E0
1.136906108E1,2.277292861E0,-1.992346348E0,1.007953559E0,3.189275328E0
1.137900808E1,2.021033518E0,-1.897735475E0,8.437717105E-1,2.897917720E0
1.138895408E1,1.567772418E0,-1.940676842E0,6.691230534E-1,2.582994893E0
1.139890108E1,1.077840285E0,-1.972650002E0,6.823851963E-1,2.349199282E0
1.140884708E1,7.053714781E-1,-2.119407513E0,5.913697033E-1,2.310661216E0
1.141879408E1,3.490881300E-1,-2.243231660E0,4.711078262E-1,2.318597289E0
1.142874008E1,1.618646702E-1,-2.264055349E0,4.440211844E-1,2.312855726E0
1.143868708E1,2.574940915E-1,-2.171877503E0,3.742504166E-1,2.218877750E0
1.144863308E1,4.215333778E-1,-2.031570640E0,3.571023238E-1,2.105348361E0
1.145858008E1,8.042020673E-1,-1.943505140E0,2.077129440E-1,2.113551007E0
1.146852608E1,1.156429275E0,-1.913093771E0,-4.080949048E-2,2.235826885E0
1.147847308E1,1.261734998E0,-1.944890930E0,-1.453325542E-1,2.322864069E0
1.148841908E1,1.366260994E0,-1.960273200E0,9.757599592E-2,2.391414058E0
1.149836608E1,1.412061942E0,-2.004852957E0,1.304396959E-1,2.455680928E0
1.150831208E1,1.465667461E0,-2.026199972E0,9.190887451E-2,2.502421762E0
1.151825908E1,1.404096572E0,-2.046579273E0,6.521052439E-2,2.482785999E0
1.152820508E1,1.059411396E0,-2.011403593E0,-1.218910575E-2,2.273377552E0
1.153815208E1,6.205790305E-1,-1.915323315E0,1.396186459E-1,2.018186091E0
1.154809808E1,2.313392401E-1,-1.850164282E0,1.132219756E-1,1.868005603E0
1.155804508E1,1.584615907E-1,-1.634732977E0,-3.207899451E-2,1.642708448E0
1.156799108E1,1.751819962E-1,-1.311234602E0,-7.013150454E-3,1.322903661E0
1.157793808E1,-1.289026731E-1,-9.486598688E-1,-8.558328353E-2,9.611950605E-1
1.158788408E1,-5.927087156E-1,-5.698918569E-1,-1.475055166E-1,8.353671214E-1
1.159783108E1,-9.457864009E-1,-2.079392678E-1,-5.913942616E-1,1.134679615E0
1.160777708E1,-1.349233756E0,1.104252523E-1,-8.518526356E-1,1.599461902E0
1.161772408E1,-1.875085993E0,4.716165340E-1,-8.305490363E-1,2.104324437E0
1.162767008E1,-2.367508966E0,1.015998158E0,-1.024245071E0,2.772440970E0
1.163761708E1,-2.676519696E0,1.707929007E0,-1.328024589E0,3.441573548E0
1.164756408E1,-2.840811253E0,2.301676335E0,-1.679520603E0,4.023519849E0
1.165751008E1,-3.209017439E0,2.968357152E0,-1.789471207E0,4.723467403E0
1.166745708E1,-3.656997188E0,5.327864789E0,-2.433668750E0,6.905252727E0
1.167740308E1,-4.714320543E0,1.310402660E1,-3.249744465E0,1.430039057E1
1.168735008E1,-6.741544948E0,1.874509749E1,-4.046191370E0,2.032729133E1
1.169729608E1,-8.147249504E0,1.449903660E1,-3.358081677E0,1.696692221E1
1.170724308E1,-3.119520541E0,7.921575047E0,-5.577206436E0,1.017781859E1
1.171718908E1,-2.615488213E0,2.151373072E0,-5.607655227E0,6.550952742E0
1.172713608E1,-2.529890238E0,-3.719530821E-1,-4.207918631E0,4.923948915E0
1.173708208E1,-2.405707511E0,2.217679328E-1,-7.503185132E-1,2.529740602E0
1.174702908E1,-2.885888023E0,1.550821924E0,-1.227368280E0,3.498547015E0
1.175697508E1,-3.275321356E0,1.854447368E0,-1.336442825E0,3.994093696E0
1.176692208E1,-3.018672443E0,2.040865374E0,-5.058768323E-1,3.678780526E0
1.177686808E1,-2.708654823E0,2.432360435E0,8.919123486E-2,3.641585275E0
1.178681508E1,-2.336195519E0,2.400645722E0,-8.173824222E-1,3.448046318E0
1.179676108E1,-1.452447930E0,2.214127729E0,-1.143466144E0,2.884351125E0
1.180670808E1,-9.698501053E-1,2.241664022E0,-1.018507637E0,2.646322849E0
1.181665408E1,-6.418338056E-1,2.288841112E0,-1.382927020E0,2.750132981E0
1.182660108E1,-8.678200659E-1,2.360454885E0,-1.614224307E0,2.988407443E0
1.183654708E1,-1.615125217E0,2.387353832E0,-1.101202762E0,3.085568879E0
1.184649408E1,-2.034924895E0,2.264458222E0,-8.083670390E-1,3.149944069E0
1.185644008E1,-2.066251353E0,1.897462410E0,-8.616853865E-1,2.934665220E0
1.186638708E1,-1.857307533E0,1.437989373E0,-9.230952573E-1,2.523788732E0
1.187633308E1,-1.701315807E0,9.667798054E-1,-8.456067129E-1,2.131710435E0
1.188628008E1,-1.447132957E0,5.468070495E-1,-6.988357528E-1,1.697516761E0
1.189622608E1,-1.027707354E0,6.806977630E-2,-5.721663507E-1,1.178214850E0
1.190617308E1,-8.109132821E-1,-4.461057168E-1,-4.438948480E-1,1.026466413E0
1.191611908E1,-7.671128129E-1,-9.400182688E-1,-3.740417075E-1,1.269647042E0
1.192606608E1,-8.824413210E-1,-1.407176886E0,-2.131848049E-1,1.674603605E0
1.193601208E1,-7.627178264E-1,-1.922711856E0,-1.977610195E-1,2.077900090E0
1.194595908E1,-3.567634776E-1,-2.342965279E0,-3.406786644E-1,2.394332564E0
1.195590508E1,-1.681669454E-1,-2.685676435E0,-2.911106845E-1,2.706636929E0
1.196585208E1,-2.922659115E-1,-3.056206305E0,-8.372810818E-2,3.071290728E0
1.197579808E1,-1.602035493E-1,-3.326446486E0,6.273590963E-2,3.330892853E0
1.198574508E1,3.177849879E-1,-3.444444467E0,2.162451645E-1,3.465825581E0
1.199569208E1,9.812309065E-1,-3.529779317E0,1.627782977E-1,3.667240501E0
1.200563808E1,1.499013255E0,-3.708157402E0,6.372038341E-1,4.050123551E0
1.201558508E1,1.871377688E0,-3.877633685E0,9.172030181E-1,4.402199317E0
1.202553108E1,2.241907266E0,-4.095514389E0,8.216185838E-1,4.740721822E0
1.203547808E1,2.699508024E0,-4.152896039E0,1.034449778E0,5.060037098E0
1.204542408E1,2.678328239E0,-4.062592226E0,1.226924330E0,5.018310578E0
1.205537108E1,2.035888077E0,-4.191806921E0,1.181696409E0,4.807545312E0
1.206531708E1,2.125116150E0,-4.154426256E0,1.388510234E0,4.868607279E0
1.207526408E1,2.351390093E0,-3.889455001E0,1.342638828E0,4.739153363E0
1.208521008E1,2.274229358E0,-3.709977055E0,1.267485150E0,4.532390928E0
1.209515708E1,2.430005323E0,-3.650719033E0,1.051706593E0,4.509851670E0
1.210510308E1,2.589572183E0,-3.621916233E0,9.634387064E-1,4.555477520E0
1.211505008E1,2.746549751E0,-3.480529389E0,9.654904944E-1,4.537597631E0
1.212499608E1,2.871923118E0,-3.254412298E0,8.052381939E-1,4.414470562E0
1.213494308E1,2.783942403E0,-2.934094808E0,8.348928597E-1,4.129926601E0
1.214488908E1,2.716653814E0,-2.656354403E0,7.600737154E-1,3.874808216E0
1.215483608E1,2.682041221E0,-2.543005543E0,5.405440968E-1,3.735292522E0
1.216478208E1,2.522688223E0,-2.457176603E0,4.513618521E-1,3.550408462E0
1.217472908E1,2.333220894E0,-2.287754114E0,4.012733603E-1,3.292227048E0
1.218467508E1,2.101873321E0,-2.153277510E0,5.912715797E-1,3.066606850E0
1.219462208E1,1.962768938E0,-2.153039528E0,5.471496964E-1,2.964357250E0
1.220456808E1,1.824191827E0,-2.233446929E0,3.644353169E-1,2.906677504E0
1.221451508E1,1.588121751E0,-2.253527437E0,5.001146936E-1,2.801897806E0
1.222446108E1,1.460873329E0,-2.275788372E0,4.943774056E-1,2.749140341E0
1.223440808E1,1.404871036E0,-2.184922641E0,3.673103929E-1,2.623445540E0
1.224435408E1,1.290017103E0,-2.164249810E0,3.130377066E-1,2.538919843E0
1.225430108E1,1.076821115E0,-2.215484283E0,3.103023791E-1,2.482781079E0
1.226424808E1,8.482868573E-1,-2.173142840E0,2.152968192E-1,2.342753320E0
1.227419408E1,5.021662623E-1,-2.126128303E0,1.848877529E-1,2.192436087E0
1.228414108E1,8.037173331E-2,-2.039528115E0,4.210346103E-2,2.041545309E0
1.229408708E1,-3.332518235E-1,-1.745532451E0,5.908845305E-2,1.778041552E0
1.230403408E1,-4.799669427E-1,-1.406193969E0,8.134416182E-2,1.488074802E0
1.231398008E1,-3.805183759E-1,-1.171998364E0,-9.630481124E-2,1.235980993E0
1.232392729E1,-3.024352428E-1,-8.934019268E-1,-6.616709232E-2,9.455221642E-1
1.233387329E1,-2.618292537E-1,-5.854553908E-1,-3.895415068E-2,6.425184811E-1
1.234382029E1,-4.450149187E-1,-2.821111983E-1,-2.517472652E-1,5.839535013E-1
1.235376629E1,-7.222960246E-1,5.393647134E-2,-3.118097182E-1,7.885721213E-1
1.236371329E1,-8.796185777E-1,3.644569516E-1,-4.622529490E-1,1.058411782E0
1.237365929E1,-1.045248562E0,6.386907810E-1,-4.696156168E-1,1.311872440E0
1.238360629E1,-1.235790902E0,7.319591331E-1,-2.891635251E-1,1.465113944E0
1.239355229E1,-1.552722562E0,7.698911905E-1,-3.292836106E-1,1.764116633E0
1.240349929E1,-1.874820237E0,8.069257003E-1,-4.416763048E-1,2.088338565E0
1.241344529E1,-2.081442419E0,9.348651177E-1,-5.355533521E-1,2.343756115E0
1.242339229E1,-2.278052706E0,1.159072509E0,-4.255324347E-1,2.591148600E0
1.243333829E1,-2.367308114E0,1.387121521E0,-4.318180454E-1,2.777538595E0
1.244328529E1,-2.310224379E0,1.523531799E0,-5.045059526E-1,2.812972108E0
1.245323129E1,-2.251588793E0,1.650080164E0,-4.475704443E-1,2.827142717E0
1.246317829E1,-2.271498124E0,1.766794682E0,-4.644479938E-1,2.914957823E0
1.247312429E1,-2.489959895E0,1.858031126E0,-5.744363129E-1,3.159455178E0
1.248307129E1,-2.654737940E0,1.918693065E0,-5.733368902E-1,3.325316797E0
1.249301729E1,-2.619448532E0,2.044276639E0,-6.631634250E-1,3.388268484E0
1.250296429E1,-2.419914198E0,2.378994652E0,-6.793988040E-1,3.460806700E0
1.251291029E1,-2.337476936E0,3.528073685E0,-1.048593608E0,4.360120515E0
1.252285729E1,-2.707084261E0,6.073105872E0,-1.909356377E0,6.917843733E0
1.253280329E1,-3.046486771E0,7.828737634E0,-7.169773972E-1,8.431148865E0
1.254275029E1,-3.000940469E0,6.799507227E0,-2.125551475E0,7.730259459E0
1.255269629E1,-1.473175286E0,4.357030524E0,-2.839592693E0,5.405298056E0
1.256264329E1,-8.719612833E-1,2.734031739E0,-1.794166375E0,3.384417086E0
1.257259029E1,-8.558554932E-1,2.341230994E0,-1.384010217E0,2.851198954E0
1.258253629E1,-1.101163366E0,2.639613824E0,-9.995638280E-1,3.029727669E0
1.259248329E1,-1.379729178E0,2.760562896E0,-7.540312028E-1,3.176936128E0
1.260242929E1,-1.417604225E0,2.370322646E0,-1.706107454E0,3.246357009E0
1.261237629E1,-1.516060227E0,2.157588662E0,-1.456501658E0,3.012478137E0
1.262232229E1,-1.381109706E0,2.197350898E0,-1.036810738E0,2.794779328E0
1.263226929E1,-1.006620686E0,2.043279104E0,-1.304581494E0,2.624920490E0
1.264221529E1,-8.935451835E-1,1.893228441E0,-1.324195394E0,2.477141572E0
1.265216229E1,-8.195378521E-1,1.817280711E0,-1.078341026E0,2.266488659E0
1.266210829E1,-7.239452317E-1,1.685363433E0,-1.062738315E0,2.119896065E0
1.267205529E1,-6.756793901E-1,1.589586625E0,-9.810645533E-1,1.986407797E0
1.268200129E1,-7.293191153E-1,1.491460406E0,-8.167365973E-1,1.850248412E0
1.269194829E1,-7.349988082E-1,1.320034077E0,-7.645993142E-1,1.693317845E0
1.270189429E1,-7.256944263E-1,1.136646098E0,-6.991689710E-1,1.519024030E0
1.271184129E1,-6.690810996E-1,9.961790210E-1,-5.953773849E-1,1.339595607E0
1.272178729E1,-6.132966158E-1,9.036889333E-1,-4.884224550E-1,1.196387446E0
1.273173429E1,-6.797396967E-1,6.782074338E-1,-2.861019230E-1,1.001930980E0
1.274168029E1,-6.280660247E-1,4.302457291E-1,-4.075171633E-1,8.635094424E-1
1.275162729E1,-5.538699013E-1,2.332957184E-1,-3.326527762E-1,6.869182115E-1
1.276157329E1,-5.578221074E-1,-7.955780089E-2,-2.510068616E-1,6.168463275E-1
1.277152029E1,-6.719506207E-1,-3.302226734E-1,-3.793346071E-1,8.393207938E-1
1.278146629E1,-8.434626120E-1,-5.763343191E-1,-7.538019919E-1,1.269569954E0
1.279141329E1,-1.203825928E0,-8.980142105E-1,-3.084838951E-1,1.533228196E0
1.280135929E1,-1.283851360E0,-1.221568719E0,1.787517579E-1,1.781139141E0
1.281130629E1,-9.996962674E-1,-1.500909507E0,-4.652508896E-2,1.803964123E0
1.282125329E1,-7.059245516E-1,-1.626539859E0,2.071549734E-2,1.773242938E0
1.283119929E1,-4.320187511E-1,-1.725957727E0,6.339433352E-2,1.780333991E0
1.284114629E1,-1.640347181E-1,-1.786189311E0,6.259561300E-2,1.794797441E0
1.285109229E1,-6.125820860E-2,-1.810725982E0,2.211691779E-1,1.825211483E0
1.286103929E1,9.535127655E-2,-2.037818974E0,1.532824012E-1,2.045798996E0
1.287098529E1,4.424406821E-1,-2.238826368E0,8.203877449E-2,2.283599707E0
1.288093229E1,6.433435567E-1,-2.364767792E0,1.894228534E-1,2.458027392E0
1.289087829E1,8.416719022E-1,-2.478876790E0,2.055974579E-1,2.625930701E0
1.290082529E1,1.040787137E0,-2.614301228E0,2.477523744E-1,2.824746009E0
1.291077129E1,1.215047758E0,-2.691313151E0,3.696106509E-1,2.975923313E0
1.292071829E1,1.540610201E0,-2.748460913E0,4.505244211E-1,3.182842980E0
1.293066429E1,1.976375701E0,-2.902111123E0,3.978521178E-1,3.533637812E0
1.294061129E1,2.082845166E0,-3.057777452E0,4.460870057E-1,3.726558808E0
1.295055729E1,2.021384644E0,-3.133219398E0,5.671307286E-1,3.771564256E0
1.296050429E1,2.077038442E0,-3.063935739E0,7.061606330E-1,3.768348942E0
1.297045029E1,2.164592018E0,-3.105060377E0,7.106401118E-1,3.851216420E0
1.298039729E1,2.247936184E0,-3.211477363E0,6.619960284E-1,3.975555644E0
1.299034329E1,2.296652846E0,-3.275155295E0,6.937790807E-1,4.059875111E0
1.300029029E1,2.284884008E0,-3.213867704E0,7.826274495E-1,4.020217193E0
1.301023629E1,2.413125581E0,-2.995436777E0,7.742755059E-1,3.923686929E0
1.302018329E1,2.443807822E0,-2.803373870E0,7.319959706E-1,3.790371990E0
1.303012929E1,2.491528995E0,-2.731005220E0,7.550065184E-1,3.773081114E0
1.304007629E1,2.476972352E0,-2.703800465E0,7.952482259E-1,3.752112568E0
1.305002329E1,2.303293821E0,-2.479990684E0,8.935679877E-1,3.500568521E0
1.305996929E1,2.075479575E0,-2.249676461E0,8.232704222E-1,3.169610991E0
1.306991529E1,1.761075812E0,-2.150919328E0,7.508128953E-1,2.879507245E0
1.307986229E1,1.461788710E0,-2.081162045E0,8.072554833E-1,2.668280927E0
1.308980929E1,1.256037325E0,-2.026499934E0,6.659124935E-1,2.475433536E0
1.309975529E1,1.170445855E0,-1.976693351E0,5.402125597E-1,2.359891886E0
1.310970229E1,1.086026460E0,-1.927187900E0,4.567832808E-1,2.258795617E0
1.311964829E1,9.566755244E-1,-1.924736747E0,3.343689340E-1,2.175233824E0
1.312959529E1,7.665574005E-1,-2.001258089E0,2.402059579E-1,2.156465416E0
1.313954129E1,6.260580178E-1,-1.956992912E0,1.868068274E-1,2.063169089E0
1.314948829E1,5.152048223E-1,-1.836682357E0,1.314641372E-1,1.912098562E0
1.315943429E1,3.460957443E-1,-1.645847949E0,1.262811653E-1,1.686577798E0
1.316938129E1,3.169584840E-1,-1.444806642E0,-2.782452386E-2,1.479426618E0
1.317932729E1,2.336187040E-1,-1.345582901E0,-1.944163756E-1,1.379481340E0
1.318927429E1,1.450698589E-1,-1.125072704E0,-1.757578373E-1,1.147921892E0
1.319922029E1,1.253409878E-1,-8.657229620E-1,-1.017872337E-1,8.806516060E-1
1.320916729E1,2.138688926E-1,-6.906643420E-1,-1.109099134E-1,7.314766883E-1
1.321911329E1,3.147711137E-1,-7.137286842E-1,2.410222292E-2,7.804296290E-1
1.322906029E1,3.169895839E-1,-7.749642348E-1,1.330099766E-1,8.477874825E-1
1.323900629E1,1.779243404E-1,-8.154702365E-1,2.734391928E-1,8.783039165E-1
1.324895329E1,-1.648037732E-1,-8.630297345E-1,2.707074467E-1,9.193819272E-1
1.325889929E1,-5.605658403E-1,-7.585306352E-1,3.282672183E-1,9.986802053E-1
1.326884629E1,-8.080489504E-1,-6.121596247E-1,3.928251569E-1,1.087195528E0
1.327879229E1,-9.151076683E-1,-5.814237356E-1,2.621376944E-1,1.115433447E0
1.328873929E1,-9.598776790E-1,-6.500507516E-1,7.551123530E-2,1.161737098E0
1.329868529E1,-1.059742933E0,-6.252603114E-1,3.454768896E-2,1.230934232E0
1.330863229E1,-1.259960075E0,-3.647797179E-1,4.142152950E-2,1.312356422E0
1.331857929E1,-1.433884043E0,-1.046148741E-1,-1.524414437E-1,1.445754514E0
1.332852558E1,-1.738559062E0,1.435128915E-1,-3.479198563E-1,1.778828769E0
1.333847258E1,-1.955175890E0,4.763065857E-1,-5.145081997E-1,2.077089168E0
1.334841858E1,-1.975478592E0,6.649558890E-1,-9.091183653E-1,2.274022472E0
1.335836558E1,-2.316151117E0,1.086956459E0,-1.126227821E0,2.795428312E0
1.336831158E1,-2.570508506E0,1.812048038E0,-1.237552522E0,3.379729030E0
1.337825858E1,-2.742297071E0,3.072888411E0,-1.610212094E0,4.422173606E0
1.338820458E1,-3.375173381E0,8.491648167E0,-2.673397575E0,9.520868581E0
1.339815158E1,-4.211940054E0,1.546868739E1,-3.469644797E0,1.640302300E1
1.340809758E1,-6.263098281E0,1.447938411E1,-2.917204833E0,1.604334903E1
1.341804458E1,-3.093366238E0,8.909783728E0,-4.726043334E0,1.054934341E1
1.342799058E1,-1.659512015E0,3.523633309E0,-4.137643870E0,5.682435096E0
1.343793758E1,-1.571883303E0,8.980919784E-1,-4.185059234E0,4.559836303E0
1.344788358E1,-1.419387334E0,9.160423458E-1,-2.090440407E0,2.687700704E0
1.345783058E1,-1.883231749E0,2.317570821E0,-1.527414643E0,3.354205095E0
1.346777658E1,-1.952832618E0,2.682190325E0,-1.233725958E0,3.539742916E0
1.347772358E1,-1.552640116E0,2.760626045E0,-6.954564276E-1,3.242746850E0
1.348766958E1,-1.618779434E0,2.675701085E0,-6.614279714E-1,3.196452739E0
1.349761658E1,-1.474996693E0,2.176895583E0,-9.988212316E-1,2.812851485E0
1.350756258E1,-8.385351634E-1,1.667451072E0,-9.504168110E-1,2.094475212E0
1.351750958E1,-5.527867046E-1,1.237992378E0,-1.096930640E0,1.743976806E0
1.352745558E1,-4.839000723E-1,1.038335692E0,-8.853222442E-1,1.447789959E0
1.353740258E1,-4.295335382E-1,9.291588199E-1,-6.232839525E-1,1.198464876E0
1.354734858E1,-4.899694821E-1,7.507918453E-1,-4.626947062E-1,1.008882986E0
1.355729558E1,-6.705072355E-1,6.320395732E-1,-2.649604377E-1,9.587794369E-1
1.356724258E1,-6.350237728E-1,4.277501374E-1,-1.617301843E-1,7.825484168E-1
1.357718858E1,-5.414385016E-1,1.749720812E-1,4.372109324E-2,5.706859155E-1
1.358713558E1,-5.544212937E-1,-3.605393171E-3,-5.428788900E-2,5.570845041E-1
1.359708158E1,-4.762176349E-1,-5.816576242E-2,-3.441602428E-1,5.904343862E-1
1.360702858E1,-5.002518474E-1,-1.710421675E-1,-2.083408984E-1,5.682545766E-1
1.361697458E1,-6.309494329E-1,-3.913494658E-1,2.931099571E-2,7.430415371E-1
1.362692158E1,-6.109203804E-1,-6.439538598E-1,6.436973132E-2,8.899683967E-1
1.363686758E1,-6.232979858E-1,-8.119560599E-1,1.104655981E-2,1.023667450E0
1.364681458E1,-6.954228792E-1,-9.464975685E-1,1.314139060E-1,1.181837655E0
1.365676058E1,-7.435977235E-1,-1.158701211E0,1.276762927E-1,1.382688434E0
1.366670758E1,-6.071938768E-1,-1.343527020E0,8.542314291E-2,1.476836609E0
1.367665358E1,-3.829066712E-1,-1.545910263E0,1.190399551E-1,1.597068117E0
1.368660058E1,-1.643108529E-1,-1.663889533E0,1.736810160E-1,1.680979337E0
1.369654658E1,9.988491520E-2,-1.778494375E0,1.753182364E-1,1.789903831E0
1.370649358E1,4.449766195E-1,-1.925469988E0,3.556510448E-2,1.976538323E0
1.371643958E1,6.274017079E-1,-2.091022205E0,1.072952378E-1,2.185753653E0
1.372638658E1,8.186188160E-1,-2.193644348E0,2.176397985E-1,2.351505767E0
1.373633258E1,1.263051206E0,-2.320407890E0,1.334135807E-1,2.645258080E0
1.374627958E1,1.603907041E0,-2.477611452E0,3.976340532E-2,2.951721097E0
1.375622558E1,1.719667000E0,-2.681081108E0,2.489662564E-1,3.194907620E0
1.376617258E1,1.751620718E0,-2.849287376E0,5.320586540E-1,3.386694569E0
1.377611858E1,1.789427499E0,-2.996676387E0,6.334873438E-1,3.547312554E0
1.378606558E1,1.762652222E0,-3.065823805E0,6.446485090E-1,3.594689160E0
1.379601258E1,1.719086664E0,-3.078035131E0,7.777580345E-1,3.610327795E0
1.380595858E1,1.830162712E0,-3.111330931E0,8.194217849E-1,3.701530464E0
1.381590558E1,2.001329717E0,-3.019021522E0,8.668736941E-1,3.724416946E0
1.382585158E1,2.211456428E0,-2.873492510E0,1.066108797E0,3.779429416E0
1.383579858E1,2.535173197E0,-2.745648403E0,8.673806477E-1,3.836409451E0
1.384574458E1,2.723845890E0,-2.769217944E0,7.375818157E-1,3.953723737E0
1.385569158E1,2.628957566E0,-2.748014771E0,7.657993090E-1,3.879362273E0
1.386563758E1,2.619670434E0,-2.757142274E0,7.158886456E-1,3.870013340E0
1.387558458E1,2.393896866E0,-2.841741545E0,6.555980051E-1,3.773068507E0
1.388553058E1,1.952790811E0,-2.808345757E0,7.651479292E-1,3.505089042E0
1.389547758E1,1.518828591E0,-2.602311512E0,7.806184924E-1,3.112592284E0
1.390542358E1,1.134773527E0,-2.359898815E0,7.924772304E-1,2.735846037E0
1.391537058E1,7.669995231E-1,-2.186770361E0,7.064067277E-1,2.422656258E0
1.392531658E1,3.618873196E-1,-2.093949321E0,5.669857907E-1,2.199331507E0
1.393526358E1,1.146966434E-1,-1.960866693E0,5.398921323E-1,2.037065787E0
1.394520958E1,4.778388485E-2,-1.805893843E0,4.313151848E-1,1.857301446E0
1.395515658E1,2.124015704E-2,-1.633828998E0,2.710652232E-1,1.656298492E0
1.396510258E1,9.625759497E-2,-1.454966179E0,2.582130432E-1,1.480832902E0
1.397504958E1,2.374484110E-1,-1.364700372E0,1.642833710E-1,1.394911424E0
1.398499558E1,4.353173116E-1,-1.374550592E0,6.567124844E-2,1.443330594E0
1.399494258E1,5.523203892E-1,-1.303915057E0,1.540624380E-2,1.416153114E0
1.400488858E1,6.386565748E-1,-1.146423227E0,1.448331928E-1,1.320282201E0
1.401483558E1,6.432152103E-1,-1.059278664E0,2.058267784E-1,1.256249083E0
1.402478158E1,6.081463882E-1,-1.146547773E0,1.726904976E-1,1.309288293E0
1.403472858E1,5.935139869E-1,-1.230172897E0,3.834990672E-1,1.418680987E0
1.404467558E1,7.569887245E-1,-1.329375588E0,3.692189971E-1,1.573719814E0
1.405462158E1,9.162271178E-1,-1.404616975E0,3.668356720E-1,1.716679757E0
1.406456858E1,8.917825404E-1,-1.529638631E0,5.254261208E-1,1.846928004E0
1.407451458E1,8.884157136E-1,-1.735558856E0,4.774649191E-1,2.007341468E0
1.408446158E1,8.366693169E-1,-1.919343275E0,5.795187858E-1,2.172495380E0
1.409440758E1,4.629301662E-1,-1.861921864E0,7.907819764E-1,2.075185172E0
1.410435458E1,1.156272277E-1,-1.700876681E0,8.123209262E-1,1.888442857E0
1.411430058E1,-9.166095257E-2,-1.585230449E0,5.304336762E-1,1.674131773E0
1.412424758E1,-3.907621130E-1,-1.475951836E0,2.988605475E-1,1.555778416E0
1.413419358E1,-6.035229217E-1,-1.296028917E0,2.332900174E-1,1.448570020E0
1.414414058E1,-8.792198706E-1,-1.003203281E0,1.359346077E-2,1.334027431E0
1.415408658E1,-1.174831998E0,-5.678909397E-1,-1.853709157E-1,1.317988133E0
1.416403358E1,-1.392031428E0,-2.643877029E-2,-4.031713665E-1,1.449481857E0
1.417397958E1,-1.736050022E0,5.936420774E-1,-6.330783311E-1,1.940893806E0
1.418392658E1,-2.025775026E0,1.229914450E0,-7.774419925E-1,2.494167208E0
1.419387258E1,-2.353996928E0,2.174548511E0,-1.269579037E0,3.446997780E0
1.420381958E1,-3.402959642E0,8.154448012E0,-2.142494367E0,9.092053608E0
1.421376558E1,-4.926245273E0,1.841859365E1,-3.875085468E0,1.945581589E1
1.422371258E1,-7.932397658E0,1.921749639E1,-3.140344230E0,2.102609954E1
1.423365858E1,-4.569324798E0,1.297261277E1,-4.707671674E0,1.453717936E1
1.424360558E1,-2.220518297E0,3.801323428E0,-6.110125179E0,7.530895764E0
1.425355258E1,-1.508454754E0,-1.516266049E0,-5.174101728E0,5.598734426E0
1.426349858E1,-1.348768171E0,-2.763927968E0,-2.723990901E0,4.108357314E0
1.427344558E1,-2.234595615E0,-1.343038192E0,-9.305503111E-1,2.768229223E0
1.428339158E1,-3.208891724E0,7.044550002E-2,-1.965046721E0,3.763423611E0
1.429333858E1,-3.345765687E0,9.383611679E-1,-9.374381849E-1,3.599091561E0
1.430328458E1,-3.183338514E0,2.012328038E0,2.975121796E-1,3.777779999E0
1.431323158E1,-2.738272725E0,2.850905301E0,1.282613066E-1,3.955028383E0
1.432318042E1,-1.716177675E0,3.131300926E0,-1.828810251E-1,3.575437983E0
1.433312742E1,-4.749880385E-1,2.929219984E0,-9.080819464E-1,3.103313740E0
1.434307342E1,4.128289202E-1,2.598570464E0,-6.401274419E-1,2.707906814E0
1.435302042E1,9.437458688E-1,2.351045546E0,-7.160721020E-1,2.632647086E0
1.436296642E1,9.464303255E-1,2.117183232E0,-9.282244349E-1,2.497958327E0
1.437291342E1,4.821172562E-1,1.947250866E0,-6.758176768E-1,2.116826048E0
1.438285942E1,7.759779593E-2,1.767937812E0,-4.762579076E-1,1.832606646E0
1.439280642E1,-2.948297877E-1,1.452095781E0,-4.590203159E-1,1.551195156E0
1.440275242E1,-6.075251581E-1,1.017838862E0,-6.135411756E-1,1.334734258E0
1.441269942E1,-9.121796751E-1,4.461524945E-1,-5.595176538E-1,1.159389414E0
1.442264542E1,-9.795574334E-1,-1.169314492E-1,-5.368479987E-1,1.123125773E0
1.443259242E1,-7.063465744E-1,-4.909620470E-1,-4.042694005E-1,9.504751248E-1
1.444253842E1,-6.565356061E-1,-7.625722307E-1,-9.032544851E-2,1.010303962E0
1.445248542E1,-7.182336715E-1,-1.031254714E0,2.124995112E-1,1.274559506E0
1.446243242E1,-5.707968597E-1,-1.340634987E0,1.511073283E-1,1.464904313E0
1.447237842E1,-3.596926403E-1,-1.604730914E0,8.341170073E-2,1.646662568E0
1.448232542E1,-3.237357724E-1,-1.871255189E0,3.183458090E-1,1.925550541E0
1.449227142E1,-3.703102338E-1,-2.133965911E0,4.096956897E-1,2.204266485E0
1.450221842E1,-2.634071980E-1,-2.304541470E0,3.978387058E-1,2.353416745E0
1.451216442E1,-1.120431038E-1,-2.365888703E0,3.653281868E-1,2.396549122E0
1.452211142E1,-6.246872842E-2,-2.485290601E0,3.103643596E-1,2.505373774E0
1.453205742E1,1.413184315E-2,-2.587016950E0,3.232504535E-1,2.607172274E0
1.454200442E1,2.577755253E-1,-2.633297077E0,4.099623593E-1,2.677456042E0
1.455195042E1,5.571688273E-1,-2.602361214E0,4.124754560E-1,2.693112881E0
1.456189742E1,8.909235844E-1,-2.497935205E0,4.073796076E-1,2.683166649E0
1.457184342E1,1.239888046E0,-2.380620763E0,3.794223154E-1,2.710837302E0
1.458179042E1,1.551728535E0,-2.397139732E0,5.107601345E-1,2.900864743E0
1.459173642E1,1.718449610E0,-2.465533444E0,4.985575801E-1,3.046388663E0
1.460168342E1,1.844473334E0,-2.529759845E0,5.360979106E-1,3.176345026E0
1.461162942E1,1.844350396E0,-2.533557612E0,7.235391426E-1,3.216216946E0
1.462157642E1,1.745500145E0,-2.603795536E0,7.455340290E-1,3.222164325E0
1.463152242E1,1.654193973E0,-2.663312005E0,5.453101623E-1,3.182287182E0
1.464146942E1,1.621547213E0,-2.632221774E0,6.698312974E-1,3.163333811E0
1.465141542E1,1.583087153E0,-2.575043607E0,6.765421468E-1,3.097535115E0
1.466136242E1,1.722501731E0,-2.487800810E0,7.693205023E-1,3.122181788E0
1.467130942E1,1.832288467E0,-2.401770726E0,8.053241479E-1,3.126392591E0
1.468125542E1,1.850491873E0,-2.332795801E0,8.599196005E-1,3.099309300E0
1.469120242E1,1.905182489E0,-2.273848851E0,8.015468466E-1,3.072879148E0
1.470114842E1,1.967590406E0,-2.267111689E0,7.376882350E-1,3.091179605E0
1.471109542E1,1.824524242E0,-2.277436118E0,7.359036648E-1,3.009511286E0
1.472104142E1,1.548254119E0,-2.226837237E0,7.538031614E-1,2.814980303E0
1.473098842E1,1.283983068E0,-2.168595461E0,7.307195234E-1,2.623998821E0
1.474093442E1,9.792659497E-1,-2.096334985E0,6.834915626E-1,2.412621579E0
1.475088142E1,8.408851594E-1,-1.974357973E0,6.852644384E-1,2.252723820E0
1.476082742E1,8.218255021E-1,-1.872545670E0,5.954278171E-1,2.129872937E0
1.477077442E1,8.302350408E-1,-1.854812819E0,4.953188074E-1,2.091640872E0
1.478072042E1,8.658106703E-1,-1.792596690E0,4.059230661E-1,2.031699915E0
1.479066742E1,9.009015656E-1,-1.552894177E0,3.914476991E-1,1.837480682E0
1.480061342E1,9.710994360E-1,-1.413574324E0,3.399021177E-1,1.748359212E0
1.481056042E1,1.109111852E0,-1.232256260E0,2.472904444E-1,1.676227059E0
1.482050642E1,1.270161712E0,-1.070519351E0,1.898649760E-1,1.671936352E0
1.483045342E1,1.380951539E0,-9.711114228E-1,1.024432182E-2,1.688250424E0
1.484039942E1,1.549971447E0,-9.138011080E-1,-1.389625518E-1,1.804648038E0
1.485034642E1,1.638574305E0,-9.180450171E-1,-2.453303846E-1,1.894180405E0
1.486029242E1,1.562147104E0,-9.209370500E-1,-1.430497190E-1,1.819035966E0
1.487023942E1,1.599028709E0,-1.002544885E0,6.998057328E-2,1.888620221E0
1.488018642E1,1.538859983E0,-1.241888378E0,5.791089691E-2,1.978315056E0
1.489013242E1,1.377562785E0,-1.563737254E0,3.564111829E-2,2.084280143E0
1.490007942E1,9.217323444E-1,-1.879754702E0,1.469312469E-1,2.098727482E0
1.491002542E1,9.329407990E-2,-2.129985126E0,2.848283994E-1,2.150969000E0
1.491997242E1,-8.892362972E-1,-2.174733283E0,2.841922954E-1,2.366637130E0
1.492991842E1,-1.676047941E0,-2.080876116E0,1.510780191E-1,2.676192571E0
1.493986542E1,-2.209375989E0,-1.792911270E0,-9.956638813E-3,2.845342197E0
1.494981142E1,-2.540952293E0,-1.236629977E0,-7.482564926E-2,2.826887181E0
1.495975842E1,-2.617169287E0,-5.891607714E-1,-1.606604362E-1,2.687470422E0
1.496970442E1,-2.606104601E0,7.946132183E-2,-3.343391132E-1,2.628664668E0
1.497965142E1,-2.713322656E0,8.534818161E-1,-3.935421717E-1,2.871485066E0
1.498959742E1,-2.896613570E0,1.621390216E0,-6.420615546E-1,3.381053009E0
1.499954442E1,-3.199577402E0,3.050477788E0,-1.251018513E0,4.594317969E0
1.500949042E1,-3.980533571E0,9.068998148E0,-3.018289743E0,1.035381320E1
1.501943742E1,-5.130651069E0,1.743562992E1,-4.439857503E0,1.870927860E1
1.502938342E1,-7.551506522E0,1.654867981E1,-1.580595654E0,1.825876055E1
1.503933042E1,-3.807700401E0,9.624094795E0,-5.919946829E0,1.192340360E1
1.504927642E1,-1.618186380E0,2.944718614E0,-4.455566925E0,5.580499216E0
1.505922342E1,-1.273568885E0,3.498669791E-1,-2.741372041E0,3.042943522E0
1.506916942E1,-1.185863793E0,4.394229341E-1,-6.863436882E-1,1.438899965E0
1.507911642E1,-2.462722102E0,1.587852341E0,-1.146131597E0,3.146409517E0
1.508906342E1,-3.071333052E0,2.158881481E0,-6.988310020E-1,3.818667403E0
1.509900942E1,-3.058647225E0,2.300879359E0,-3.715297437E-1,3.845439250E0
1.510895642E1,-2.474324148E0,2.208455345E0,-9.993812487E-1,3.463858813E0
1.511890242E1,-1.511167862E0,1.898706113E0,-1.181351424E0,2.698945052E0
1.512884942E1,-8.256402987E-1,1.863713450E0,-9.042719007E-1,2.229981479E0
1.513879542E1,-3.561726530E-1,1.940237131E0,-1.005225395E0,2.214013816E0
1.514874242E1,8.769219149E-2,1.945585579E0,-8.259224269E-1,2.115452912E0
1.515868842E1,2.824757539E-1,1.827181216E0,-6.456029208E-1,1.958363317E0
1.516863542E1,3.156633988E-1,1.454114825E0,-7.042700820E-1,1.646234993E0
1.517858142E1,2.635568136E-1,1.042635734E0,-7.182905357E-1,1.293248917E0
1.518852842E1,2.988248795E-2,6.686788112E-1,-6.179127002E-1,9.109557732E-1
1.519847442E1,-2.141770774E-1,4.448082197E-1,-5.229234394E-1,7.191488693E-1
1.520842142E1,-2.290725852E-1,1.021888644E-1,-5.638703211E-1,6.171438668E-1
1.521836742E1,-3.711818343E-1,-3.757888556E-1,-5.417340052E-1,7.566167792E-1
1.522831442E1,-5.399567440E-1,-7.871287823E-1,-3.318552160E-1,1.010570576E0
1.523826042E1,-5.622176422E-1,-1.020916836E0,-1.638144608E-1,1.176943092E0
1.524820742E1,-2.914553047E-1,-1.181765553E0,8.877706926E-2,1.220408696E0
1.525815342E1,-1.751366803E-1,-1.405794019E0,2.177713609E-1,1.433301799E0
1.526810042E1,-1.907820752E-1,-1.617567891E0,3.422246683E-1,1.664344137E0
1.527804742E1,1.328834575E-2,-1.795792778E0,4.212497878E-1,1.844586584E0
1.528799342E1,2.274836592E-1,-1.915303434E0,5.313727391E-1,2.000623165E0
1.529794042E1,2.129258464E-1,-2.140513623E0,4.493725562E-1,2.197514887E0
1.530788642E1,3.173348254E-1,-2.333234342E0,4.161299658E-1,2.391202216E0
1.531783342E1,5.796248397E-1,-2.352630141E0,3.647306013E-1,2.450277933E0
1.532777579E1,6.990501995E-1,-2.325737042E0,2.978057464E-1,2.446714580E0
1.533772279E1,8.864378198E-1,-2.381141750E0,2.038420872E-1,2.548952655E0
1.534766879E1,1.014554189E0,-2.463469377E0,4.221338868E-2,2.664541901E0
1.535761579E1,1.069505371E0,-2.627270937E0,3.056093673E-1,2.853031966E0
1.536756179E1,1.244957582E0,-2.811319651E0,5.030043876E-1,3.115517770E0
1.537750879E1,1.520184707E0,-2.943833345E0,4.918618604E-1,3.349484199E0
1.538745479E1,1.593036921E0,-2.958905713E0,5.283100406E-1,3.401764417E0
1.539740179E1,1.667789041E0,-2.981009358E0,6.222712147E-1,3.472053937E0
1.540734779E1,1.724768696E0,-3.051174776E0,6.121174517E-1,3.557974472E0
1.541729479E1,1.668543917E0,-3.006461703E0,7.046092936E-1,3.509889603E0
1.542724079E1,1.654153627E0,-2.967080705E0,7.077305373E-1,3.469967528E0
1.543718779E1,1.762056683E0,-2.938303049E0,7.045005354E-1,3.497826405E0
1.544713379E1,1.829244114E0,-2.903938377E0,8.005322816E-1,3.524179914E0
1.545708079E1,1.839000778E0,-2.784862170E0,7.984559353E-1,3.431459317E0
1.546702779E1,1.843139730E0,-2.648212155E0,8.919892395E-1,3.347511984E0
1.547697379E1,1.800364131E0,-2.577790629E0,9.650087569E-1,3.289005538E0
1.548692079E1,1.642710041E0,-2.596508735E0,9.386992101E-1,3.212710709E0
1.549686679E1,1.393758695E0,-2.529772709E0,9.465238810E-1,3.039444146E0
1.550681379E1,1.065582255E0,-2.433060932E0,9.382465625E-1,2.817012185E0
1.551675979E1,8.429451334E-1,-2.433818146E0,8.466920292E-1,2.711257025E0
1.552670679E1,7.674514398E-1,-2.422582721E0,8.633858299E-1,2.683900863E0
1.553665279E1,8.244492209E-1,-2.396904674E0,8.600347906E-1,2.676663665E0
1.554659979E1,1.028888345E0,-2.434478297E0,8.180202073E-1,2.766668188E0
1.555654579E1,1.201208422E0,-2.518811519E0,6.987937260E-1,2.876738746E0
1.556649279E1,1.291674788E0,-2.578172452E0,7.053215575E-1,2.968648758E0
1.557643879E1,1.314415195E0,-2.625164185E0,5.883515167E-1,2.994216393E0
1.558638579E1,1.143383844E0,-2.638913913E0,3.786984301E-1,2.900793987E0
1.559633179E1,8.788844597E-1,-2.544446297E0,2.128468359E-1,2.700360833E0
1.560627879E1,9.032039067E-1,-2.234003000E0,4.797296919E-2,2.410155204E0
1.561622479E1,1.128802350E0,-1.911199858E0,1.374667975E-1,2.223910242E0
1.562617179E1,1.320507116E0,-1.665822038E0,2.070488830E-1,2.135783544E0
1.563611779E1,1.546309043E0,-1.515186653E0,2.029640181E-1,2.174409493E0
1.564606479E1,1.698799603E0,-1.359113358E0,3.061206698E-1,2.197002293E0
1.565601179E1,1.517362987E0,-1.373645443E0,2.198484381E-1,2.058549385E0
1.566595779E1,1.004238531E0,-1.384269834E0,1.205122840E-1,1.714415705E0
1.567590479E1,2.982734871E-1,-1.300823634E0,-3.773559093E-2,1.335115417E0
1.568585079E1,-3.625801416E-1,-1.130717021E0,-2.722682878E-2,1.187740141E0
1.569579779E1,-9.201785199E-1,-9.059225696E-1,1.052981213E-2,1.291330743E0
1.570574379E1,-1.337287163E0,-6.101569533E-1,-2.688140452E-1,1.494285601E0
1.571569079E1,-1.954958227E0,-2.461075526E-1,-4.881303866E-1,2.029951200E0
1.572563679E1,-2.770665715E0,6.203416336E-1,-8.459392002E-1,2.962604492E0
1.573558379E1,-4.177517495E0,7.159231442E0,-2.429296202E0,8.637576472E0
1.574552979E1,-6.356551405E0,2.025079295E1,-4.699563925E0,2.173904924E1
1.575547679E1,-1.078446305E1,2.302892205E1,-3.365743284E0,2.565081133E1
1.576542279E1,-7.281575074E0,1.631594426E1,-6.123274398E0,1.888718777E1
1.577536979E1,-3.425561469E0,5.008906192E0,-8.011046802E0,1.004989967E1
1.578531579E1,-2.351211168E0,-1.847261140E0,-5.285663095E0,6.072791946E0
1.579526279E1,-1.424227074E0,-3.449716902E0,-1.603510015E0,4.062045523E0
1.580520879E1,-2.300129600E0,-2.164749747E0,5.397275332E-1,3.204378794E0
1.581515579E1,-4.072740653E0,-3.736809343E-1,-7.126608364E-1,4.151474357E0
1.582510179E1,-5.336998140E0,9.088146025E-1,-1.232800051E0,5.552412907E0
1.583504879E1,-5.769972180E0,2.050719101E0,-1.021522900E0,6.208183053E0
1.584499579E1,-4.799721467E0,3.285153449E0,-5.270630488E-1,5.840150238E0
1.585494179E1,-2.995875611E0,4.225202124E0,-5.908561715E-1,5.213129068E0
1.586488879E1,-1.450762031E0,4.455350870E0,-1.364679322E0,4.880288055E0
1.587483479E1,-3.830066586E-1,4.338831650E0,-1.320252032E0,4.551397545E0
1.588478179E1,1.079170892E-1,4.444973817E0,-8.427485208E-1,4.525446210E0
1.589472779E1,2.749334670E-1,4.453970343E0,-1.417921875E0,4.682301002E0
1.590467479E1,-5.545718595E-4,3.937510343E0,-2.073018189E0,4.449875551E0
1.591462079E1,-5.328104963E-1,3.436111600E0,-1.683587780E0,3.863316938E0
1.592456779E1,-9.701290905E-1,2.954917912E0,-1.462161763E0,3.436656418E0
1.593451379E1,-1.543443323E0,2.286242609E0,-1.747195838E0,3.265243613E0
1.594446079E1,-1.730684617E0,1.654873711E0,-1.671989096E0,2.920517725E0
1.595440679E1,-1.644732008E0,8.484035093E-1,-1.404348003E0,2.323171368E0
1.596435379E1,-1.437865120E0,-8.003434896E-2,-1.448797367E0,2.042761711E0
1.597429979E1,-1.122997381E0,-9.207025766E-1,-1.228543278E0,1.902139569E0
1.598424679E1,-6.727765399E-1,-1.727342933E0,-9.052150565E-1,2.062948419E0
1.599419279E1,-4.732819672E-1,-2.555434384E0,-9.740560806E-1,2.775432572E0
1.600413979E1,-1.847375160E-1,-3.056888090E0,-7.354019737E-1,3.149525172E0
1.601408579E1,1.261595249E-2,-3.400876279E0,-3.040622306E-1,3.414465180E0
1.602403279E1,1.978592527E-1,-3.732187119E0,-1.710544467E-2,3.737467267E0
1.603397979E1,1.207093937E0,-3.788332084E0,6.426791668E-2,3.976514317E0
1.604392579E1,1.467159378E0,-3.962189101E0,-1.803450876E-1,4.228950634E0
1.605387279E1,7.160313177E-1,-4.503523157E0,2.570669889E-1,4.567330195E0
1.606381879E1,7.134097186E-1,-4.890343369E0,6.666808176E-1,4.986870262E0
1.607376579E1,1.075816783E0,-5.090821005E0,7.068592291E-1,5.251046584E0
1.608371179E1,1.376558672E0,-5.155671304E0,8.871370737E-1,5.409516851E0
1.609365879E1,1.507398308E0,-5.049878801E0,1.038613873E0,5.371428520E0
1.610360479E1,1.581872247E0,-4.851368169E0,1.117538713E0,5.223694640E0
1.611355179E1,2.244462938E0,-4.657269845E0,1.326120590E0,5.337262604E0
1.612349779E1,2.834888023E0,-4.493905656E0,1.140829196E0,5.434452080E0
1.613344479E1,2.933654512E0,-4.564532420E0,1.336250014E0,5.588098881E0
1.614339079E1,2.926743688E0,-4.664529163E0,1.289030824E0,5.655551378E0
1.615333779E1,2.971420216E0,-4.659267254E0,1.253820791E0,5.666584158E0
1.616328379E1,2.848035488E0,-4.449173287E0,1.359759621E0,5.454850622E0
1.617323079E1,2.820056561E0,-4.180884907E0,1.259398889E0,5.197942205E0
1.618317679E1,2.743598369E0,-4.036683213E0,9.836640792E-1,4.978929442E0
1.619312379E1,2.717397580E0,-3.884601812E0,7.667171757E-1,4.802315699E0
1.620307079E1,2.642053868E0,-3.713432760E0,8.586892001E-1,4.637604839E0
1.621301679E1,2.485352289E0,-3.490639225E0,9.102530175E-1,4.380650495E0
1.622296379E1,2.347012867E0,-3.249947364E0,8.128143581E-1,4.090390501E0
1.623290979E1,2.199305768E0,-3.145376928E0,6.270243432E-1,3.888894626E0
1.624285679E1,1.949143318E0,-3.168478108E0,6.053587282E-1,3.768935179E0
1.625280279E1,1.639232410E0,-3.176563053E0,5.826323551E-1,3.621753192E0
1.626274979E1,1.353734504E0,-3.041080728E0,4.940756893E-1,3.365245888E0
1.627269579E1,1.021100000E0,-2.845314778E0,5.223476348E-1,3.067785594E0
1.628264279E1,7.254908701E-1,-2.746510867E0,5.161699418E-1,2.887228836E0
1.629258879E1,5.528432033E-1,-2.620861219E0,3.828733420E-1,2.705760731E0
1.630253579E1,5.289732245E-1,-2.281263705E0,2.545561945E-1,2.355583923E0
1.631248179E1,4.567251375E-1,-2.026998117E0,8.868822813E-2,2.079707869E0
