"Time (s)","Linear Acceleration x (m/s^2)","Linear Acceleration y (m/s^2)","Linear Acceleration z (m/s^2)","Absolute acceleration (m/s^2)"
6.191083317E-3,-6.199437305E-1,-2.724041187E0,-1.592208517E-1,2.798228349E0
1.613708332E-2,-7.839318171E-1,-2.346936123E0,-2.099146765E-2,2.474489624E0
2.608408334E-2,-8.674636781E-1,-1.929116896E0,-9.278010964E-2,2.117213589E0
3.603008331E-2,-9.311553517E-1,-1.606896138E0,-8.160962541E-2,1.858985104E0
4.597708333E-2,-8.358968997E-1,-1.253926626E0,5.723218136E-3,1.507013061E0
5.592408331E-2,-6.997439716E-1,-7.700198293E-1,1.196889595E-1,1.047328798E0
6.587008332E-2,-6.839034989E-1,-3.604165256E-1,1.887013435E-1,7.957589238E-1
7.581708333E-2,-7.526026549E-1,-7.638217807E-3,2.286542169E-1,7.866078117E-1
8.576308333E-2,-7.564866679E-1,4.844786543E-1,3.776552868E-1,9.744819961E-1
9.571008332E-2,-8.446631916E-1,9.878005457E-1,4.641940784E-1,1.380102158E0
1.056570833E-1,-7.697190631E-1,1.376940349E0,5.004070544E-1,1.654943921E0
1.156030833E-1,-3.772901282E-1,1.809772886E0,6.593729675E-1,1.962752774E0
1.255500833E-1,1.757735883E-1,2.353493190E0,8.290533185E-1,2.501430782E0
1.354960833E-1,6.288290133E-1,3.113335356E0,9.207131016E-1,3.306961685E0
1.454430833E-1,9.049593870E-1,3.817632481E0,1.058275867E0,4.063645785E0
1.553900833E-1,8.054213579E-1,4.304250047E0,1.180682648E0,4.535337203E0
1.653360833E-1,5.459872699E-1,4.659564292E0,1.137934824E0,4.827477308E0
1.752830833E-1,2.672399747E-1,4.822049060E0,1.069625312E0,4.946480835E0
1.852290833E-1,-2.669826972E-1,4.753804452E0,9.898517489E-1,4.863100144E0
1.951760833E-1,-8.835248101E-1,4.442767078E0,8.430106223E-1,4.607544064E0
2.051220833E-1,-1.127382062E0,4.257426129E0,7.196530831E-1,4.462574158E0
2.150690833E-1,-1.604439868E0,5.387609884E0,-4.149523365E-1,5.636732475E0
2.250160833E-1,-2.755862904E0,7.333776092E0,-1.061781857E0,7.906100987E0
2.349620833E-1,-3.795025099E0,7.077797270E0,-9.964824915E-2,8.031647370E0
2.449090833E-1,-3.212733052E0,5.784097298E0,-7.395207524E-1,6.657651700E0
2.548550833E-1,-2.824297546E0,2.498974839E0,-5.813126385E-1,3.815685556E0
2.648020833E-1,-2.698101184E0,1.503225589E-1,-1.380650407E-1,2.705810198E0
2.747490833E-1,-9.277844319E-1,5.351418543E-1,9.853201568E-1,1.455340705E0
2.846950833E-1,1.354159597E-1,4.129590207E-1,1.602647551E0,1.660527569E0
2.946420833E-1,3.551274267E-1,4.987674952E-3,1.654870788E0,1.692553601E0
3.045880833E-1,3.208022243E-1,-2.911299437E-1,1.597607836E0,1.655301032E0
3.145350833E-1,-7.147227108E-2,-5.773844790E-1,1.372996402E0,1.491174115E0
3.244820833E-1,-9.774783097E-1,-4.958479804E-1,8.926575762E-1,1.413565214E0
3.344280833E-1,-1.963299719E0,1.576801103E-1,4.262392169E-1,2.015214300E0
3.443750833E-1,-2.673866521E0,9.883987159E-1,-4.924525023E-2,2.851125969E0
3.543210833E-1,-2.910491060E0,1.588634698E0,-4.764767396E-1,3.349887834E0
3.642680833E-1,-2.755795368E0,2.037934164E0,-4.872057956E-1,3.461929124E0
3.742150833E-1,-2.293196118E0,2.474846889E0,-1.563919505E-1,3.377584048E0
3.841610833E-1,-1.842127138E0,2.793555225E0,1.967979465E-1,3.352031119E0
3.941080833E-1,-1.603921367E0,2.692207775E0,3.876978797E-1,3.157666243E0
4.040540833E-1,-1.449988006E0,2.492840526E0,6.865660286E-1,2.964471625E0
4.140010833E-1,-1.288268347E0,2.364366673E0,9.925964320E-1,2.869688619E0
4.239480833E-1,-1.104751291E0,2.147350187E0,1.083894272E0,2.646963361E0
4.338940833E-1,-8.770959426E-1,1.819175209E0,1.006449655E0,2.256465520E0
4.438410833E-1,-7.711281690E-1,1.554370015E0,8.754246622E-1,1.943469355E0
4.537870833E-1,-7.101984277E-1,1.298369558E0,6.828542161E-1,1.629857416E0
4.637340833E-1,-5.458586311E-1,1.026240726E0,5.055654681E-1,1.267567795E0
4.736810833E-1,-3.431613922E-1,7.683732533E-1,2.903534335E-1,8.902035239E-1
4.836270833E-1,-2.040765971E-1,4.723053360E-1,1.474281871E-1,5.352145908E-1
4.935740833E-1,-2.066259831E-1,1.660480607E-1,4.911076427E-2,2.695888026E-1
5.035200833E-1,-1.042839948E-1,-5.482524812E-2,2.176805098E-2,1.198115497E-1
5.134670833E-1,6.421178341E-2,-3.069109941E-1,-4.662803650E-2,3.170042353E-1
5.234140833E-1,1.558423305E-1,-5.905559170E-1,-1.133968073E-1,6.212100764E-1
5.333600833E-1,2.489110002E-1,-7.928011662E-1,-1.461417997E-1,8.437107328E-1
5.433070833E-1,4.108338502E-1,-9.224596649E-1,-1.309378695E-1,1.018263724E0
5.532530833E-1,4.699047982E-1,-1.104561841E0,-1.167642279E-1,1.206027058E0
5.632000833E-1,4.887898429E-1,-1.290544814E0,-1.399595477E-1,1.387086912E0
5.731470833E-1,5.683686572E-1,-1.478992388E0,-1.886522269E-1,1.595635008E0
5.830930833E-1,6.634800518E-1,-1.699461654E0,-2.319169450E-1,1.839065296E0
5.930400833E-1,7.418435588E-1,-1.936436441E0,-2.343482172E-1,2.086872551E0
6.029860833E-1,8.053364271E-1,-2.114239744E0,-2.005103803E-1,2.271294976E0
6.129304583E-1,7.688775757E-1,-2.313185409E0,-1.346473432E-1,2.441337619E0
6.228774583E-1,5.915940902E-1,-2.513858927E0,-1.390070180E-1,2.586270137E0
6.328234583E-1,5.144020727E-1,-2.612394451E0,-2.068932009E-1,2.670584029E0
6.427704583E-1,5.886707747E-1,-2.619290072E0,-2.970245218E-1,2.701006725E0
6.527164583E-1,6.362065914E-1,-2.682776216E0,-3.219289827E-1,2.775911620E0
6.626634583E-1,6.957253996E-1,-2.695728968E0,-4.001764226E-1,2.812673047E0
6.726104583E-1,6.827802488E-1,-2.679452074E0,-4.718562698E-1,2.805049131E0
6.825564583E-1,7.592030650E-1,-2.733960403E0,-4.877466996E-1,2.879032064E0
6.925034583E-1,9.827397805E-1,-2.771122967E0,-5.199321135E-1,2.985838136E0
7.024494583E-1,1.165910828E0,-2.754000565E0,-5.556842923E-1,3.041817254E0
7.123964583E-1,1.282580029E0,-2.807433591E0,-5.631663895E-1,3.137491240E0
7.223434583E-1,1.386297356E0,-2.852367690E0,-5.809418885E-1,3.224176681E0
7.322894583E-1,1.391869752E0,-2.820936567E0,-5.692019220E-1,3.196713210E0
7.422364583E-1,1.147333639E0,-2.774745317E0,-4.495807171E-1,3.036067996E0
7.521824583E-1,9.148278791E-1,-2.691290932E0,-3.492799187E-1,2.863905269E0
7.621294583E-1,9.430623293E-1,-2.528502109E0,-3.452956259E-1,2.720646714E0
7.720764583E-1,1.031517546E0,-2.346280650E0,-4.188992071E-1,2.597024813E0
7.820224583E-1,1.066442088E0,-2.264501492E0,-5.107542872E-1,2.554630242E0
7.919694583E-1,1.074388454E0,-2.233665031E0,-5.288151670E-1,2.534406341E0
8.019154583E-1,1.049276709E0,-2.089069235E0,-3.756403363E-1,2.367762138E0
8.118624583E-1,9.205827087E-1,-1.949995549E0,-1.360717614E-1,2.160664409E0
8.218094583E-1,7.250514518E-1,-1.862470917E0,7.455430191E-2,2.000013967E0
8.317554583E-1,4.840573624E-1,-1.765869652E0,2.259001601E-1,1.844895130E0
8.417024583E-1,2.984260994E-1,-1.686116554E0,3.948741674E-1,1.757262866E0
8.516484583E-1,2.664546206E-1,-1.596605623E0,4.447099499E-1,1.678664505E0
8.615954583E-1,3.147602963E-1,-1.459576124E0,3.315698719E-1,1.529501581E0
8.715424583E-1,4.214072972E-1,-1.377678267E0,3.362978939E-1,1.479418059E0
8.814884583E-1,4.492956653E-1,-1.270721583E0,2.934004176E-1,1.379378027E0
8.914354583E-1,6.036675672E-1,-1.108422757E0,1.420054062E-1,1.270110655E0
9.013814583E-1,7.012830319E-1,-9.409549928E-1,5.197948135E-2,1.174689770E0
9.113284583E-1,6.514026278E-1,-6.638402402E-1,-7.876199484E-2,9.333877543E-1
9.212754583E-1,5.136325791E-1,-3.600037122E-1,-2.277502191E-1,6.673014772E-1
9.312214583E-1,1.549576467E-1,-1.829909527E-1,-4.786951733E-1,5.353939017E-1
9.411684583E-1,-1.218995360E-1,8.167390823E-3,-5.629430258E-1,5.760477875E-1
9.511144583E-1,-3.497403869E-1,3.675781953E-1,-3.837597799E-1,6.361632154E-1
9.610614583E-1,-4.685400215E-1,7.600497419E-1,-3.475935817E-1,9.581370778E-1
9.710084583E-1,-3.178696994E-1,1.074966159E0,-4.800564782E-1,1.219445616E0
9.809544583E-1,-1.560032751E-1,1.376165593E0,-5.119436840E-1,1.476568690E0
9.909014583E-1,-2.375425512E-1,1.666835361E0,-2.929911125E-1,1.708979337E0
1.000847458E0,-6.739069529E-1,2.010477979E0,-2.505758487E-2,2.120566001E0
1.010794458E0,-1.121062245E0,2.504280603E0,2.287114283E-1,2.753272746E0
1.020741458E0,-1.417410536E0,2.989659728E0,5.576724187E-1,3.355311677E0
1.030687458E0,-1.754620632E0,3.499031149E0,7.277924804E-1,3.981406088E0
1.040634458E0,-2.156280494E0,3.934344075E0,6.717562739E-1,4.536503649E0
1.050580458E0,-2.597477619E0,4.213946818E0,5.982182546E-1,4.986191216E0
1.060527458E0,-3.184919601E0,4.690646921E0,3.171880603E-1,5.678599270E0
1.070474458E0,-3.729696205E0,5.115758795E0,-3.157777119E-1,6.338875089E0
1.080420458E0,-3.636086376E0,5.100188829E0,-2.493357273E-1,6.268589836E0
1.090367458E0,-2.942213082E0,4.525031555E0,1.407004539E-1,5.399289306E0
1.100313458E0,-2.334665741E0,3.941792843E0,8.937118292E-2,4.582180938E0
1.110260458E0,-1.913506000E0,3.607981149E0,1.862361574E-1,4.088241320E0
1.120206458E0,-1.836888764E0,3.099145333E0,1.172974118E-1,3.604527821E0
1.130153458E0,-1.625404622E0,2.615934355E0,-2.435506383E-1,3.089396324E0
1.140100458E0,-1.291505511E0,2.165435625E0,-4.773479748E-1,2.566117500E0
1.150046458E0,-9.749059734E-1,1.845647308E0,-4.450584805E-1,2.134228829E0
1.159993458E0,-7.711518502E-1,1.591237879E0,-4.255966079E-1,1.818748371E0
1.169940458E0,-7.259971659E-1,1.373775251E0,-4.557740514E-1,1.619277713E0
1.179886458E0,-7.335229710E-1,1.279628647E0,-4.121000648E-1,1.531447644E0
1.189833458E0,-6.680771327E-1,1.223048065E0,-2.671569443E-1,1.418994876E0
1.199779458E0,-5.034769888E-1,1.178598116E0,-1.540051718E-1,1.290852505E0
1.209726458E0,-3.582315673E-1,1.115530633E0,-3.844546119E-2,1.172269808E0
1.219672458E0,-3.742441674E-1,1.011106963E0,2.269210839E-1,1.101766384E0
1.229619458E0,-6.241108949E-1,9.751658821E-1,6.449642587E-1,1.325308191E0
1.239566458E0,-9.935976946E-1,9.337570703E-1,9.307749903E-1,1.650903004E0
1.249512458E0,-1.307990274E0,8.016064882E-1,1.027655168E0,1.846479532E0
1.259459458E0,-1.389588899E0,6.629479551E-1,9.994154549E-1,1.835562190E0
1.269405458E0,-1.276665863E0,5.429537344E-1,9.157488155E-1,1.662308749E0
1.279352458E0,-1.124924404E0,3.275844097E-1,6.725432360E-1,1.350955538E0
1.289299458E0,-9.373183170E-1,1.070987713E-1,3.579384756E-1,1.009037029E0
1.299245458E0,-6.935364213E-1,-7.426840961E-2,8.833860118E-2,7.030734476E-1
1.309192458E0,-3.502993807E-1,-2.102465791E-1,-6.122970343E-2,4.131130072E-1
1.319139458E0,-3.426380664E-2,-3.722337484E-1,-1.837662935E-1,4.165357398E-1
1.329085458E0,1.457939269E-1,-5.863172704E-1,-2.881098203E-1,6.693512376E-1
1.339032458E0,2.064593740E-1,-8.387363076E-1,-3.696749703E-1,9.395550279E-1
1.348978458E0,1.754615297E-1,-1.056041061E0,-3.540231435E-1,1.127537962E0
1.358925458E0,2.252055291E-1,-1.200619315E0,-2.194202391E-1,1.241108179E0
1.368871458E0,3.237056592E-1,-1.312099405E0,-6.823229235E-2,1.353161427E0
1.378818458E0,4.363648403E-1,-1.475654213E0,-1.101578884E-3,1.538821251E0
1.388765458E0,5.731572345E-1,-1.573238395E0,-2.269534629E-2,1.674545712E0
1.398711458E0,7.110939288E-1,-1.678726258E0,-9.818406980E-2,1.825764645E0
1.408658458E0,8.711675969E-1,-1.775005926E0,-1.376165593E-1,1.982048773E0
1.418604458E0,1.056365874E0,-1.797553959E0,-1.739429712E-1,2.092215394E0
1.428551458E0,1.132124446E0,-1.862483196E0,-2.587159403E-1,2.194876615E0
1.438498458E0,1.104641071E0,-2.046329012E0,-3.872072983E-1,2.357461307E0
1.448444458E0,1.115548101E0,-2.207794025E0,-4.233839484E-1,2.509592794E0
1.458391458E0,1.130338706E0,-2.369151449E0,-3.395840657E-1,2.646858802E0
1.468337458E0,1.074303669E0,-2.517363748E0,-3.050141208E-1,2.753957557E0
1.478284458E0,1.110140377E0,-2.699270627E0,-3.413370244E-1,2.938534420E0
1.488231458E0,1.176589890E0,-2.874306443E0,-2.212644875E-1,3.113672955E0
1.498177458E0,1.240396461E0,-2.880528465E0,-9.317772031E-2,3.137628038E0
1.508124458E0,1.388784469E0,-2.881650546E0,-9.614810586E-2,3.200293209E0
1.518070458E0,1.556069800E0,-2.951445251E0,-1.805129027E-1,3.341401981E0
1.528017458E0,1.623212208E0,-2.982104541E0,-1.847544364E-1,3.400279337E0
1.537964458E0,1.668592741E0,-2.977254276E0,-2.432067307E-1,3.421606972E0
1.547910458E0,1.521806286E0,-2.972110480E0,-3.524737044E-1,3.357614151E0
1.557857458E0,1.250332927E0,-2.939204689E0,-4.191611624E-1,3.221482999E0
1.567803458E0,1.157988727E0,-2.821880892E0,-3.363365221E-1,3.068724803E0
1.577750458E0,1.112170238E0,-2.687239396E0,-2.353983772E-1,2.917805786E0
1.587697458E0,9.671294689E-1,-2.552800798E0,-2.174509335E-1,2.738506205E0
1.597643458E0,7.430960324E-1,-2.449862906E0,-2.053273165E-1,2.568302801E0
1.607590583E0,4.814287466E-1,-2.334316077E0,-2.133344936E-1,2.392972376E0
1.617536583E0,2.687570348E-1,-2.220610537E0,-1.784593423E-1,2.243922734E0
1.627483583E0,6.915532102E-2,-2.049130413E0,-9.883664648E-2,2.052677907E0
1.637430583E0,-1.019950474E-1,-1.890095503E0,2.102189144E-2,1.892962208E0
1.647376583E0,-1.952736322E-1,-1.779607100E0,1.118396755E-1,1.793778508E0
1.657323583E0,-1.380255537E-1,-1.713161096E0,1.892322707E-1,1.729098276E0
1.667269583E0,4.092404108E-2,-1.597743491E0,2.339272177E-1,1.615295943E0
1.677216583E0,2.032998310E-1,-1.504110273E0,2.183935046E-1,1.533419139E0
1.687163583E0,2.926282927E-1,-1.497484208E0,2.036421490E-1,1.539337648E0
1.697109583E0,4.029205574E-1,-1.443060079E0,1.573766398E-1,1.506497518E0
1.707056583E0,5.163850097E-1,-1.281057122E0,1.492338439E-1,1.389255760E0
1.717002583E0,5.112073003E-1,-1.165952343E0,9.536578495E-2,1.276664561E0
1.726949583E0,4.075018875E-1,-1.054336597E0,-1.413153252E-2,1.130434938E0
1.736896583E0,3.797697131E-1,-8.824658793E-1,-1.433842345E-1,9.713547765E-1
1.746842583E0,3.368358743E-1,-7.450873017E-1,-2.481815600E-1,8.545218430E-1
1.756789583E0,1.778778550E-1,-6.145441192E-1,-3.339450109E-1,7.216815614E-1
1.766735583E0,2.561577469E-2,-5.301541793E-1,-3.201069903E-1,6.198290950E-1
1.776682583E0,-2.474622063E-2,-4.484960586E-1,-2.151272317E-1,4.980369623E-1
1.786629583E0,4.770955212E-2,-3.539372259E-1,-1.839978250E-1,4.017498735E-1
1.796575583E0,2.170767847E-1,-2.842103487E-1,-1.961588641E-1,4.078923299E-1
1.806522583E0,3.824568741E-1,-1.745680386E-1,-2.673767813E-1,4.982344868E-1
1.816468583E0,4.809422582E-1,-5.600638568E-2,-2.694853055E-1,5.541340099E-1
1.826415583E0,4.901219483E-1,1.282534128E-1,-1.357126876E-1,5.244867926E-1
1.836362583E0,3.448201011E-1,4.191921526E-1,7.320481936E-2,5.477060421E-1
1.846308583E0,2.235118648E-1,7.264662588E-1,2.105488801E-1,7.886961454E-1
1.856255583E0,6.289338246E-2,9.780836427E-1,2.434710614E-1,1.009891750E0
1.866201583E0,-1.643319029E-1,1.097912387E0,2.815644836E-1,1.145292601E0
1.876148583E0,-4.633012086E-1,1.254197352E0,3.194579494E-1,1.374668101E0
1.886095583E0,-7.095102105E-1,1.463533520E0,4.202183390E-1,1.679856706E0
1.896041583E0,-8.288042271E-1,1.707327329E0,4.731356041E-1,1.955949988E0
1.905988583E0,-9.574552506E-1,2.026056715E0,4.933108370E-1,2.294554848E0
1.915934583E0,-1.093381087E0,2.285158535E0,5.240625501E-1,2.586904190E0
1.925881583E0,-1.279150052E0,2.473800822E0,4.614365315E-1,2.822913218E0
1.935828583E0,-2.085327163E0,3.637196177E0,-2.703845708E-1,4.201296612E0
1.945774583E0,-4.039876962E0,6.479058759E0,-1.723870271E0,7.827549871E0
1.955721583E0,-5.499712118E0,8.118232697E0,-5.698743518E-1,9.822285491E0
1.965667583E0,-5.697478400E0,7.392739415E0,-1.533640466E0,9.458642040E0
1.975614583E0,-4.190664960E0,5.256303055E0,-1.484924973E0,6.884431479E0
1.985561583E0,-2.054030964E0,3.500815719E0,-3.060853855E-1,4.070435132E0
1.995507583E0,-7.443363731E-1,3.343518602E0,1.126213496E0,3.605760684E0
2.005454583E0,-1.022127210E0,2.985211751E0,1.551762156E0,3.516276301E0
2.015400583E0,-1.735500968E0,2.917124434E0,1.732582623E0,3.810960655E0
2.025347583E0,-2.288538518E0,2.877067498E0,1.404350342E0,3.935368575E0
2.035294583E0,-2.683110677E0,2.129738958E0,8.414295352E-1,3.527445903E0
2.045240583E0,-2.472054259E0,1.879071162E0,6.371336675E-1,3.169842267E0
2.055187583E0,-1.962837351E0,2.005331844E0,5.839661050E-1,2.866200042E0
2.065133583E0,-1.750482996E0,1.971248424E0,5.072389412E-1,2.684641953E0
2.075080583E0,-1.686365061E0,1.877413477E0,5.649813652E-1,2.586061179E0
2.085027583E0,-1.510530369E0,1.829010810E0,6.569335091E-1,2.461411013E0
2.094973583E0,-1.332462480E0,1.694913105E0,7.521858215E-1,2.283411966E0
2.104920583E0,-1.178940032E0,1.579833469E0,7.636147892E-1,2.113972785E0
2.114866583E0,-9.888930979E-1,1.513295079E0,6.275910115E-1,1.913594009E0
2.124813583E0,-8.161894441E-1,1.420796220E0,4.703067577E-1,1.704703949E0
2.134760583E0,-7.555674125E-1,1.302128148E0,4.406976271E-1,1.568640885E0
2.144706583E0,-9.413771617E-1,1.226928277E0,4.245289063E-1,1.603673517E0
2.154653583E0,-1.139398090E0,1.281072325E0,3.756075919E-1,1.755122609E0
2.164599583E0,-1.261302742E0,1.288577226E0,3.385772117E-1,1.834652665E0
2.174546583E0,-1.228358945E0,1.310912420E0,2.769393726E-1,1.817705280E0
2.184493583E0,-1.148070680E0,1.388883287E0,1.078963315E-1,1.805188270E0
2.194439583E0,-1.106088841E0,1.289735559E0,-7.490634084E-2,1.700723757E0
2.204386583E0,-9.893822906E-1,1.083890179E0,-2.301768501E-1,1.485488681E0
2.214332583E0,-8.950710145E-1,8.718976218E-1,-3.561375332E-1,1.299304247E0
2.224279583E0,-8.593515435E-1,5.943759030E-1,-4.624960105E-1,1.142659332E0
2.234226583E0,-8.137599991E-1,1.762304020E-1,-4.554046170E-1,9.490289015E-1
2.244172583E0,-6.155100793E-1,-2.317602396E-1,-3.717905295E-1,7.555088776E-1
2.254119583E0,-3.909296358E-1,-6.601600027E-1,-2.924976075E-1,8.210919922E-1
2.264065583E0,-2.470656189E-1,-1.097994833E0,-2.104155636E-1,1.144949249E0
2.274012583E0,-9.227988034E-2,-1.556328832E0,-2.038339376E-1,1.572330526E0
2.283959583E0,1.500766652E-1,-1.994066014E0,-1.453418640E-1,2.004980431E0
2.293905583E0,4.255421923E-1,-2.380871608E0,-8.124585550E-2,2.419966252E0
2.303852583E0,7.050911772E-1,-2.738000829E0,-4.603746772E-2,2.827706059E0
2.313798583E0,9.384865907E-1,-3.087825708E0,-1.117052078E-2,3.227313041E0
2.323745583E0,1.047098256E0,-3.413850081E0,3.348704059E-2,3.570981450E0
2.333692583E0,1.055142271E0,-3.746336796E0,1.500150319E-1,3.894979989E0
2.343638583E0,1.033282674E0,-4.059354038E0,2.399136702E-1,4.195662863E0
2.353585583E0,1.004396698E0,-4.361231164E0,2.687450480E-1,4.483455575E0
2.363531583E0,9.706242035E-1,-4.662217174E0,3.110706302E-1,4.772331219E0
2.373478583E0,1.026392388E0,-4.924295812E0,3.537589224E-1,5.042550540E0
2.383425583E0,1.120037374E0,-5.111233635E0,3.958471441E-1,5.247464907E0
2.393371583E0,1.254011118E0,-5.229998771E0,4.103880000E-1,5.393871461E0
2.403318583E0,1.394029275E0,-5.223504853E0,3.307209293E-1,5.416428427E0
2.413264583E0,1.492112955E0,-5.208895585E0,2.249260139E-1,5.423060575E0
2.423211583E0,1.566646975E0,-5.223440534E0,8.495997034E-2,5.453983127E0
2.433158583E0,1.646964914E0,-5.216101694E0,3.495904058E-4,5.469936967E0
2.443104583E0,1.688759788E0,-5.082862360E0,-4.598718166E-2,5.356259349E0
2.453051583E0,1.671586954E0,-4.872653203E0,-8.128090225E-2,5.152044135E0
2.462997583E0,1.616768869E0,-4.675305582E0,-8.873493277E-2,4.947756840E0
2.472944583E0,1.578191279E0,-4.416058751E0,-9.245734334E-2,4.690502208E0
2.482891583E0,1.578205751E0,-4.092519445E0,-1.028441910E-1,4.387485125E0
2.492837583E0,1.550447995E0,-3.803857026E0,-3.047709131E-1,4.118992907E0
2.502784583E0,1.416709309E0,-3.613479286E0,-6.021684142E-1,3.927709843E0
2.512730583E0,1.298862624E0,-3.370852581E0,-8.089106838E-1,3.701895154E0
2.522677583E0,1.218501928E0,-3.018259630E0,-9.442026094E-1,3.389123295E0
2.532624583E0,1.053278251E0,-2.660786008E0,-9.555905735E-1,3.017006894E0
2.542570583E0,8.345497012E-1,-2.343608472E0,-9.039596593E-1,2.646907052E0
2.552517583E0,5.956187652E-1,-2.056109650E0,-8.358490256E-1,2.298040948E0
2.562463583E0,3.513621122E-1,-1.784894738E0,-7.831210276E-1,1.980551212E0
2.572410583E0,3.068165615E-1,-1.530536179E0,-6.504886349E-1,1.691098123E0
2.582357583E0,4.240406638E-1,-1.272256477E0,-4.288815737E-1,1.407972455E0
2.592303583E0,6.159731787E-1,-9.932559979E-1,-2.367490840E-1,1.192489230E0
2.602250583E0,8.139028904E-1,-7.108354819E-1,-9.539966226E-2,1.084816156E0
2.612196833E0,9.026677170E-1,-4.668674254E-1,-1.050086841E-3,1.016255530E0
2.622142833E0,9.758462057E-1,-2.113101876E-1,1.670713599E-1,1.012344137E0
2.632089833E0,9.883788353E-1,1.414774758E-1,3.378264292E-1,1.054056590E0
2.642035833E0,1.028377737E0,5.298319978E-1,4.587983775E-1,1.244499364E0
2.651982833E0,9.013680272E-1,6.832073879E-1,4.403948509E-1,1.213748030E0
2.661929833E0,7.028605375E-1,7.653245151E-1,3.314646951E-1,1.090689412E0
2.671875833E0,4.957726244E-1,9.098630083E-1,2.360708435E-1,1.062718510E0
2.681822833E0,1.116549218E-1,1.025785228E0,2.120703256E-1,1.053411590E0
2.691768833E0,-1.176187163E-1,1.151668180E0,8.280834116E-2,1.160616638E0
2.701715833E0,-2.692495897E-1,1.308126807E0,-1.050720533E-1,1.339675789E0
2.711662833E0,-6.979553083E-1,1.326299368E0,-3.179234938E-1,1.532085825E0
2.721608833E0,-1.074558462E0,1.366698366E0,-4.842476162E-1,1.804726036E0
2.731555833E0,-1.281018969E0,1.397147157E0,-4.519815107E-1,1.948670588E0
2.741501833E0,-1.456894445E0,1.360036048E0,-4.704435094E-1,2.047817514E0
2.751448833E0,-1.468805515E0,1.279183674E0,-4.503666560E-1,1.999132471E0
2.761395833E0,-1.442716701E0,1.321154988E0,-2.618150011E-1,1.973684138E0
2.771341833E0,-1.420362065E0,1.482114801E0,2.178438663E-2,2.052941119E0
2.781288833E0,-1.609605884E0,1.562040977E0,2.951347383E-1,2.262279299E0
2.791234833E0,-1.785193092E0,1.652047167E0,4.338225074E-1,2.470703581E0
2.801181833E0,-1.710150657E0,1.968560459E0,5.243209239E-1,2.659841721E0
2.811128833E0,-1.572721793E0,2.195917745E0,7.174019051E-1,2.794668867E0
2.821074833E0,-1.633951497E0,2.492799010E0,8.943632090E-1,3.111869205E0
2.831021833E0,-2.653737774E0,3.862116929E0,9.381085682E-1,4.778945389E0
2.840967833E0,-4.460273349E0,6.908276548E0,9.502894878E-2,8.223585210E0
2.850914833E0,-5.403506125E0,8.086434953E0,-9.152903938E-1,9.768626577E0
2.860861833E0,-5.262486486E0,6.812863437E0,-1.597249986E0,8.755574210E0
2.870807833E0,-3.003716727E0,4.798505831E0,-1.577530836E0,5.876782787E0
2.880754833E0,-4.447879006E-1,2.808680218E0,-6.584572935E-1,2.918918781E0
2.890700833E0,9.462169021E-1,2.212954777E0,5.769249244E-1,2.474941947E0
2.900647833E0,6.462016757E-1,1.816704760E0,9.492475871E-1,2.149200729E0
2.910594833E0,-4.427665181E-1,1.502776523E0,7.149846661E-1,1.722086682E0
2.920540833E0,-1.632002620E0,1.767722050E0,5.618051942E-1,2.470606985E0
2.930487833E0,-2.824931969E0,2.105778238E0,1.768923251E-1,3.527865291E0
2.940433833E0,-3.451543864E0,2.232669250E0,-5.760325662E-1,4.150877081E0
2.950380833E0,-3.488676900E0,2.406997553E0,-1.387374705E0,4.459743524E0
2.960327833E0,-3.231299424E0,2.568118749E0,-1.334553298E0,4.337921435E0
2.970273833E0,-3.007677923E0,2.394723077E0,-5.049713910E-1,3.877605087E0
2.980220833E0,-2.645522436E0,2.049437392E0,6.416769540E-1,3.407452405E0
2.990166833E0,-2.108454655E0,1.886547412E0,1.743147372E0,3.323131796E0
3.000113833E0,-1.553842742E0,1.780114639E0,2.706413586E0,3.592757978E0
3.010060833E0,-1.019055521E0,1.710976576E0,3.282690017E0,3.839527152E0
3.020006833E0,-7.532039680E-1,1.467287432E0,3.387175668E0,3.767387375E0
3.029953833E0,-5.577334490E-1,1.025695766E0,3.048698480E0,3.264610364E0
3.039899833E0,-3.616215637E-1,6.130010390E-1,2.444897450E0,2.546382526E0
3.049846833E0,-1.020013880E-1,4.125695962E-1,1.834260440E0,1.882851380E0
3.059793833E0,5.351020932E-2,3.044007844E-1,1.225893320E0,1.264253777E0
3.069739833E0,-7.108825520E-3,2.133999825E-1,6.266262209E-1,6.620049159E-1
3.079686833E0,-2.598192003E-1,2.586644483E-1,3.450677672E-2,3.682445264E-1
3.089632833E0,-5.709580236E-1,2.416630840E-1,-4.639566815E-1,7.743706562E-1
3.099579833E0,-8.876798415E-1,1.244059449E-1,-8.361342967E-1,1.225794804E0
3.109526833E0,-9.548713660E-1,-5.259278119E-2,-1.084992964E0,1.446290102E0
3.119472833E0,-1.038133378E0,-2.983015537E-1,-1.230217921E0,1.637113576E0
3.129419833E0,-1.121087242E0,-4.661879790E-1,-1.229901001E0,1.728243128E0
3.139365833E0,-1.037257173E0,-5.787948275E-1,-1.137692750E0,1.644764630E0
3.149312833E0,-8.877508852E-1,-7.713518250E-1,-1.057928542E0,1.581865377E0
3.159259833E0,-7.955569589E-1,-1.108716872E0,-9.500602039E-1,1.662762271E0
3.169205833E0,-6.092061961E-1,-1.464574324E0,-7.862821054E-1,1.770409469E0
3.179152833E0,-2.648692212E-1,-1.796061165E0,-5.553615626E-1,1.898530453E0
3.189098833E0,7.386961123E-2,-2.083947659E0,-2.980980523E-1,2.106456031E0
3.199045833E0,3.245137079E-1,-2.327050912E0,-1.074764649E-1,2.352025995E0
3.208992833E0,5.442078891E-1,-2.623217062E0,-6.661610367E-2,2.679900686E0
3.218938833E0,8.515241683E-1,-2.908595100E0,-3.257370550E-2,3.030854650E0
3.228885833E0,1.194798119E0,-3.020686809E0,-8.294977069E-2,3.249457187E0
3.238831833E0,1.444063753E0,-3.048054702E0,-2.950130431E-1,3.385703809E0
3.248778833E0,1.476248875E0,-3.125664210E0,-5.316440133E-1,3.497389434E0
3.258725833E0,1.324618440E0,-3.201504936E0,-7.975624808E-1,3.555327521E0
3.268671833E0,1.231056411E0,-3.239795428E0,-1.011313369E0,3.610336416E0
3.278618833E0,1.171420366E0,-3.256802055E0,-1.088704777E0,3.628259002E0
3.288565833E0,1.204157100E0,-3.270792688E0,-1.008452911E0,3.628368283E0
3.298511833E0,1.304101291E0,-3.237305683E0,-8.445765066E-1,3.590840813E0
3.308458833E0,1.412727647E0,-3.261282191E0,-7.506117511E-1,3.632516887E0
3.318404833E0,1.609269815E0,-3.292663613E0,-6.407074857E-1,3.720468934E0
3.328351833E0,1.894943722E0,-3.326151786E0,-5.843391573E-1,3.872408768E0
3.338298833E0,2.178486318E0,-3.378204285E0,-5.458610431E-1,4.056603395E0
3.348244833E0,2.459060868E0,-3.378491968E0,-4.847037721E-1,4.206676370E0
3.358191833E0,2.592302248E0,-3.388791838E0,-4.796985189E-1,4.293489460E0
3.368137833E0,2.717803085E0,-3.371867657E0,-4.548104302E-1,4.354629448E0
3.378084833E0,2.879307274E0,-3.279662914E0,-4.237266318E-1,4.384762646E0
3.388031833E0,3.026847435E0,-3.101229866E0,-4.983990840E-1,4.362090522E0
3.397977833E0,3.143179837E0,-2.932425427E0,-5.954196310E-1,4.339726133E0
3.407924833E0,3.020804923E0,-2.780749823E0,-6.772385502E-1,4.161307969E0
3.417870833E0,2.796881706E0,-2.726295873E0,-7.104425490E-1,3.969882250E0
3.427817833E0,2.371661951E0,-2.666743151E0,-5.118512249E-1,3.605314289E0
3.437764833E0,1.735710006E0,-2.530621140E0,-1.882545797E-1,3.074438545E0
3.447710833E0,1.201844307E0,-2.293684945E0,2.335144043E-2,2.589587931E0
3.457657833E0,6.876442552E-1,-2.188912781E0,2.186461043E-1,2.304777625E0
3.467603833E0,2.622172165E-1,-2.162809056E0,4.719404697E-1,2.229176684E0
3.477550833E0,1.906853221E-1,-2.012798738E0,7.073178700E-1,2.141965971E0
3.487497833E0,3.579659575E-1,-1.833648822E0,8.982048297E-1,2.072963951E0
3.497443833E0,4.884653224E-1,-1.838068732E0,9.298429441E-1,2.117003291E0
3.507390833E0,6.824086583E-1,-1.754887996E0,9.179122853E-1,2.094725858E0
3.517336833E0,7.325980145E-1,-1.587777497E0,8.459062365E-1,1.942496999E0
3.527283833E0,5.572525156E-1,-1.399515864E0,6.717398286E-1,1.649366368E0
3.537230833E0,2.622794893E-1,-1.172618753E0,4.240400791E-1,1.274219471E0
3.547176833E0,1.379131593E-2,-8.788090307E-1,2.655384715E-1,9.181536868E-1
3.557123833E0,-2.091092956E-1,-4.475599194E-1,7.059694290E-2,4.990195460E-1
3.567070833E0,-4.790060990E-1,-1.964097279E-1,-1.775788430E-1,5.473188007E-1
3.577016833E0,-9.377489644E-1,2.690303922E-3,-3.518491852E-1,1.001587843E0
3.586963833E0,-1.308271818E0,3.069688815E-1,-4.675573969E-1,1.422819371E0
3.596909833E0,-1.348579891E0,6.770859379E-1,-4.580159104E-1,1.576988162E0
3.606857083E0,-1.214335567E0,1.125040544E0,-5.575671688E-1,1.746770805E0
3.616804083E0,-1.090556590E0,1.499837712E0,-6.175981200E-1,1.954547077E0
3.626750083E0,-1.032109576E0,1.642444285E0,-5.063712144E-1,2.004815506E0
3.636697083E0,-8.927090317E-1,1.913749244E0,-2.723703218E-1,2.129213746E0
3.646643083E0,-7.848211786E-1,2.221696950E0,1.442149960E-2,2.356287249E0
3.656590083E0,-8.047441041E-1,2.398843026E0,2.102975229E-1,2.538953718E0
3.666537083E0,-1.003769292E0,2.406973579E0,2.999843093E-1,2.625083844E0
3.676483083E0,-1.315406005E0,2.302925885E0,4.107516237E-1,2.683743186E0
3.686430083E0,-1.787297359E0,2.519452958E0,3.978539085E-1,3.114540542E0
3.696376083E0,-2.973673441E0,5.253354889E0,-9.589667559E-1,6.112289961E0
3.706323083E0,-5.295039105E0,8.853001417E0,-5.846432126E-1,1.033222536E1
3.716270083E0,-7.197892063E0,9.542713248E0,-1.761728654E0,1.208208236E1
3.726216083E0,-7.501136853E0,7.671062787E0,-2.301738900E0,1.097316091E1
3.736163083E0,-5.741572838E0,4.049177544E0,-1.818772920E0,7.257370899E0
3.746109083E0,-2.939131599E0,2.627003134E0,-1.912015764E-1,3.946669237E0
3.756056083E0,-1.197771429E0,2.853451763E0,1.477522398E0,3.429273363E0
3.766003083E0,-1.407605194E0,2.550449048E0,1.920512134E0,3.489198989E0
3.775949083E0,-2.221564072E0,2.319046074E0,1.851440145E0,3.706906018E0
3.785896083E0,-3.169978796E0,2.427007309E0,1.413436915E0,4.235201761E0
3.795842083E0,-3.930310081E0,1.902033178E0,7.623494518E-1,4.432408401E0
3.805789083E0,-3.795633210E0,1.588772693E0,3.343543160E-1,4.128295404E0
3.815736083E0,-3.034813682E0,1.802843935E0,1.829804643E-1,3.534660124E0
3.825682083E0,-2.249343608E0,2.028723630E0,1.441958829E-1,3.032500402E0
3.835629083E0,-1.844688365E0,1.992496036E0,1.790674710E-1,2.721209433E0
3.845576083E0,-1.722705360E0,1.841454855E0,1.724928800E-1,2.527533092E0
3.855522083E0,-1.650477482E0,1.583216668E0,2.649806106E-1,2.302360889E0
3.865469083E0,-1.574288555E0,1.318079937E0,3.858717942E-1,2.089166393E0
3.875415083E0,-1.326807053E0,1.147620737E0,5.181697261E-1,1.829193860E0
3.885362083E0,-9.889103472E-1,9.702349252E-1,6.692407286E-1,1.538565123E0
3.895309083E0,-7.689976629E-1,8.091569978E-1,7.794981658E-1,1.361510133E0
3.905255083E0,-7.848241022E-1,5.993729335E-1,7.852600121E-1,1.261677483E0
3.915202083E0,-7.984429253E-1,3.998413771E-1,7.752449012E-1,1.182534942E0
3.925148083E0,-8.222415315E-1,3.502493870E-1,7.927304149E-1,1.194645253E0
3.935095083E0,-1.018297868E0,3.274218571E-1,7.762529612E-1,1.321629404E0
3.945042083E0,-1.258225206E0,2.292541230E-1,6.110878301E-1,1.417433053E0
3.954988083E0,-1.329452772E0,1.474486524E-1,4.243909121E-1,1.403315155E0
3.964935083E0,-1.133849375E0,1.110889113E-1,2.995879412E-1,1.178010223E0
3.974881083E0,-8.770227063E-1,9.461905897E-2,1.543314282E-1,8.955109063E-1
3.984828083E0,-8.500074005E-1,-2.801634908E-2,-5.835338496E-4,8.504691865E-1
3.994775083E0,-9.133973578E-1,-2.874391812E-1,-1.396548986E-1,9.676877114E-1
4.004721083E0,-8.378630260E-1,-4.652828300E-1,-1.628168893E-1,9.721172263E-1
4.014668083E0,-7.133646950E-1,-6.699149126E-1,-7.166813454E-2,9.812295856E-1
4.024614083E0,-5.570321486E-1,-9.270409584E-1,-4.921597760E-2,1.082641199E0
4.034561083E0,-4.160080879E-1,-1.316517561E0,-2.097396072E-1,1.396521364E0
4.044508083E0,-2.338648718E-1,-1.679047270E0,-2.106857232E-1,1.708297687E0
4.054454083E0,-2.128617463E-1,-2.053910512E0,-6.391123652E-2,2.065900085E0
4.064401083E0,4.695489585E-2,-2.422166984E0,6.908368349E-2,2.423606861E0
4.074348083E0,5.323939553E-1,-2.643585838E0,1.650809312E-1,2.701710777E0
4.084294083E0,1.076064851E0,-2.842237388E0,2.463151288E-1,3.049081842E0
4.094241083E0,1.578614179E0,-3.071421345E0,3.138434895E-1,3.467585549E0
4.104187083E0,1.947853130E0,-3.320386432E0,2.287127073E-1,3.856346376E0
4.114134083E0,2.295968429E0,-3.463049723E0,6.904512841E-2,4.155592815E0
4.124081083E0,2.573824462E0,-3.546870729E0,-8.518691540E-2,4.383163371E0
4.134027083E0,2.749161410E0,-3.599798555E0,-1.965950847E-1,4.533771909E0
4.143974083E0,2.830406132E0,-3.674642916E0,-3.462112999E-1,4.651243027E0
4.153920083E0,2.891924396E0,-3.705651870E0,-4.782846987E-1,4.724810974E0
4.163867083E0,2.916267524E0,-3.719864112E0,-6.080262280E-1,4.765679509E0
4.173814083E0,2.831271520E0,-3.793236144E0,-6.590279818E-1,4.779022572E0
4.183760083E0,2.699795999E0,-3.835260082E0,-7.007923043E-1,4.742280906E0
4.193707083E0,2.674745650E0,-3.853066024E0,-7.996173386E-1,4.758126728E0
4.203653083E0,2.852939547E0,-3.871173681E0,-9.034112636E-1,4.892995160E0
4.213600083E0,3.042950667E0,-3.904840779E0,-9.835285699E-1,5.047242685E0
4.223547083E0,3.204342590E0,-3.947774545E0,-1.087273305E0,5.199509451E0
4.233493083E0,3.443326187E0,-3.918318027E0,-1.189142400E0,5.350118787E0
4.243440083E0,3.633936355E0,-3.816909181E0,-1.221447097E0,5.409826442E0
4.253386083E0,3.625331007E0,-3.671107689E0,-1.223989393E0,5.302660333E0
4.263333083E0,3.318692201E0,-3.545059261E0,-1.219247375E0,5.006768144E0
4.273280083E0,2.893680899E0,-3.450814424E0,-1.153151545E0,4.648792082E0
4.283226083E0,2.451553921E0,-3.350793707E0,-9.636585617E-1,4.262226287E0
4.293173083E0,1.988319370E0,-3.181073595E0,-6.013382558E-1,3.799243456E0
4.303120083E0,1.515167942E0,-2.962630974E0,-2.556238961E-1,3.337403146E0
4.313066083E0,1.049470837E0,-2.788994982E0,1.135529280E-2,2.979934729E0
4.323013083E0,5.252059365E-1,-2.703194109E0,1.783751972E-1,2.759513975E0
4.332959083E0,1.385103062E-1,-2.467629086E0,2.935746646E-1,2.488888204E0
4.342906083E0,4.074014615E-2,-2.217534317E0,3.675057264E-1,2.248150054E0
4.352853083E0,7.527822375E-2,-2.039734522E0,3.032693481E-1,2.063529992E0
4.362799083E0,1.167832223E-1,-1.933965408E0,2.044724536E-1,1.948247803E0
4.372746083E0,1.825436407E-1,-1.748345547E0,1.625513526E-1,1.765349052E0
4.382692083E0,2.044870716E-1,-1.452274121E0,3.251643933E-2,1.466960260E0
4.392639083E0,6.405304978E-2,-1.366574405E0,-2.237494811E-1,1.386251142E0
4.402586083E0,-7.677481860E-2,-1.340006996E0,-3.894432735E-1,1.397561872E0
4.412532083E0,-1.586016681E-1,-1.049612047E0,-2.158547167E-1,1.083251216E0
4.422479083E0,-3.768442780E-1,-5.771681321E-1,-9.457988262E-2,6.957585908E-1
4.432426083E0,-7.484836569E-1,-2.818270236E-1,-2.270730750E-1,8.313942731E-1
4.442372083E0,-1.103152881E0,-5.414053917E-2,-3.442079707E-1,1.156873634E0
4.452319083E0,-1.353574875E0,2.812586743E-1,-3.812431018E-1,1.434091241E0
4.462265083E0,-1.364708558E0,5.411089379E-1,-3.393770377E-1,1.506786350E0
4.472212083E0,-1.283143408E0,7.293951291E-1,-3.236515359E-1,1.511034274E0
4.482159083E0,-1.248694245E0,8.414412296E-1,-2.043905560E-1,1.519551302E0
4.492105083E0,-1.270206151E0,1.020965953E0,7.380823374E-2,1.631331603E0
4.502052083E0,-1.098790785E0,1.306301891E0,2.966023894E-1,1.732552682E0
4.511998083E0,-9.523531164E-1,1.693463581E0,4.367518529E-1,1.991368258E0
4.521945083E0,-1.065256857E0,1.982815971E0,4.890213561E-1,2.303361290E0
4.531892083E0,-1.234255715E0,2.211093024E0,3.989555240E-1,2.563490792E0
4.541838083E0,-1.508825613E0,2.457449083E0,1.653944150E-1,2.888419298E0
4.551785083E0,-1.951035769E0,2.540226361E0,9.804837786E-2,3.204513071E0
4.561731083E0,-2.147286160E0,2.596394130E0,2.536930724E-1,3.378825315E0
4.571678083E0,-2.135286504E0,2.863086805E0,4.437967245E-1,3.599120732E0
4.581625083E0,-2.988568638E0,4.575097169E0,-3.585616426E-1,5.476460816E0
4.591571083E0,-5.404896592E0,8.354977103E0,-4.269636869E-2,9.950898077E0
4.601518083E0,-7.037475455E0,9.752866856E0,-4.410589850E-1,1.203490780E1
4.611465083E0,-7.162517577E0,8.296533598E0,-1.774484940E0,1.110328441E1
4.621411083E0,-5.316100191E0,4.750467446E0,-1.467348243E0,7.278802996E0
4.631358083E0,-2.342001365E0,2.752541100E0,-2.202856271E-1,3.620770451E0
4.641304083E0,-5.342716424E-1,2.740487650E0,1.460736212E0,3.151106001E0
4.651251083E0,-9.670750898E-1,2.146483045E0,2.030768402E0,3.109122705E0
4.661198083E0,-2.081841491E0,1.662012577E0,1.701573669E0,3.160965478E0
4.671144083E0,-2.895083646E0,1.912043027E0,1.232637498E0,3.681957775E0
4.681091083E0,-3.750546207E0,1.607211887E0,7.826965928E-1,4.154797330E0
4.691037083E0,-3.962311893E0,1.048282390E0,3.063555268E-1,4.110068760E0
4.700984083E0,-3.264247899E0,1.022533007E0,1.221506373E-1,3.422836379E0
4.710931083E0,-2.122283466E0,1.092247020E0,1.645605290E-1,2.392523946E0
4.720877083E0,-1.265825856E0,9.792256039E-1,3.544044185E-1,1.639146233E0
4.730824083E0,-6.821075267E-1,8.946333504E-1,5.398734212E-1,1.247839261E0
4.740770083E0,-3.934503704E-1,7.912048763E-1,6.870934474E-1,1.119332728E0
4.750717083E0,-1.801470132E-1,6.844850045E-1,8.264898992E-1,1.088144394E0
4.760664083E0,-5.111285090E-2,7.005899906E-1,8.997344613E-1,1.141473153E0
4.770610083E0,-2.686564627E-1,6.017211753E-1,9.625896907E-1,1.166543433E0
4.780557083E0,-5.664135676E-1,4.387294543E-1,1.036133630E0,1.259714556E0
4.790504083E0,-7.065351471E-1,3.616795242E-1,9.642187250E-1,1.248888202E0
4.800450083E0,-7.087527037E-1,2.357866323E-1,8.454033029E-1,1.128110134E0
4.810397083E0,-7.874646317E-1,1.474340343E-1,6.565019846E-1,1.035776132E0
4.820343083E0,-8.716370552E-1,8.273576260E-2,4.260515213E-1,9.737126174E-1
4.830290083E0,-8.018859851E-1,1.003756428E-1,1.850924603E-1,8.290691296E-1
4.840237083E0,-8.593500086E-1,1.881277317E-1,-1.971911352E-2,8.799223398E-1
4.850183083E0,-9.740095952E-1,2.853745294E-1,-9.887641668E-2,1.019759707E0
4.860130083E0,-9.714660564E-1,2.944067234E-1,-2.356252309E-1,1.042084866E0
4.870076083E0,-8.445519483E-1,2.452129287E-1,-4.065288377E-1,9.688462570E-1
4.880023083E0,-8.424449041E-1,1.608358526E-1,-4.353169461E-1,9.618120563E-1
4.889970083E0,-8.009021911E-1,1.020163715E-2,-3.257974275E-1,8.646920590E-1
4.899916083E0,-7.225854617E-1,-1.823255396E-1,-2.881904936E-1,7.990157148E-1
4.909863083E0,-5.854700089E-1,-4.212638211E-1,-2.523845752E-1,7.641572561E-1
4.919810083E0,-3.348200467E-1,-6.091079628E-1,-1.636998006E-1,7.140830476E-1
4.929756083E0,-1.171118723E-1,-8.480789888E-1,-8.043192308E-2,8.598967706E-1
4.939703083E0,1.302227185E-1,-1.149156216E0,-9.535621013E-3,1.156550428E0
4.949649083E0,3.111001586E-1,-1.340527983E0,-5.662407093E-3,1.376165195E0
4.959596083E0,2.901367211E-1,-1.486609556E0,-2.587274155E-2,1.514878440E0
4.969543083E0,4.121616798E-1,-1.673527499E0,-8.684281033E-2,1.725721071E0
4.979489083E0,5.877609479E-1,-1.689342463E0,-1.430299115E-1,1.794379682E0
4.989436083E0,4.523384833E-1,-1.751560931E0,-2.567336611E-1,1.827152968E0
4.999382083E0,3.083817881E-1,-1.876526454E0,-3.799192921E-1,1.939275516E0
5.009329083E0,4.462786482E-1,-1.840716351E0,-3.704362778E-1,1.929928588E0
5.019276083E0,5.302009571E-1,-1.841326801E0,-3.225733459E-1,1.943103447E0
5.029222083E0,6.491342005E-1,-1.839860319E0,-4.057675302E-1,1.992764033E0
5.039169083E0,8.600184184E-1,-1.812511722E0,-5.414778972E-1,2.077986702E0
5.049116083E0,1.093426696E0,-1.922476798E0,-6.294632900E-1,2.299504949E0
5.059062083E0,1.395068764E0,-2.057555666E0,-6.789529538E-1,2.576961251E0
5.069009083E0,1.696553396E0,-2.172072215E0,-6.578409239E-1,2.833539450E0
5.078955083E0,1.954818040E0,-2.298779039E0,-5.543137050E-1,3.068055137E0
5.088902083E0,2.134960814E0,-2.475490083E0,-3.972715259E-1,3.293012829E0
5.098849083E0,2.300681870E0,-2.635852311E0,-3.205244084E-1,3.513344612E0
5.108795083E0,2.413458580E0,-2.897633325E0,-2.302749737E-1,3.778106373E0
5.118742083E0,2.513250232E0,-3.098278776E0,-1.543828654E-1,3.992441880E0
5.128688083E0,2.696278022E0,-3.251864666E0,-1.433352093E-1,4.226710773E0
5.138635083E0,2.851580654E0,-3.473287028E0,-1.924832495E-1,4.498031215E0
5.148582083E0,3.003114756E0,-3.612647227E0,-2.920508071E-1,4.706932324E0
5.158528083E0,3.051844575E0,-3.686665376E0,-5.082001138E-1,4.812849910E0
5.168475083E0,2.975099577E0,-3.745314703E0,-7.263948496E-1,4.838000537E0
5.178422083E0,2.929733077E0,-3.717874889E0,-8.180418420E-1,4.803657154E0
5.188368083E0,2.750663559E0,-3.564401851E0,-8.070478340E-1,4.574105025E0
5.198315083E0,2.458222670E0,-3.401518888E0,-7.596843640E-1,4.265009938E0
5.208261083E0,2.030274020E0,-3.233606150E0,-7.034750068E-1,3.882408842E0
5.218208083E0,1.435105234E0,-3.060187674E0,-6.352134418E-1,3.439152766E0
5.228155083E0,1.057902303E0,-2.857567034E0,-4.650677256E-1,3.082391056E0
5.238101083E0,1.001251846E0,-2.629791672E0,-2.159073416E-1,2.822219955E0
5.248048083E0,1.075134924E0,-2.402352524E0,-5.655083455E-2,2.632567331E0
5.257994083E0,1.047223167E0,-2.278378689E0,3.024651367E-2,2.507708249E0
5.267941083E0,8.402071747E-1,-2.129132602E0,6.078999281E-2,2.289726874E0
5.277888083E0,6.898609346E-1,-1.893780418E0,1.804906833E-1,2.023583274E0
5.287834083E0,4.161621255E-1,-1.703616686E0,2.851710463E-1,1.776745129E0
5.297781083E0,-3.293474366E-2,-1.526030899E0,2.737455138E-1,1.550739053E0
5.307728083E0,-3.275744694E-1,-1.267458837E0,2.955440434E-1,1.342051869E0
5.317674083E0,-4.834875147E-1,-9.567600167E-1,2.126902036E-1,1.092880153E0
5.327621083E0,-5.082700611E-1,-5.886497247E-1,-8.833936863E-3,7.777692408E-1
5.337567083E0,-5.576554618E-1,-3.646458167E-1,-2.353575198E-1,7.066394751E-1
5.347514083E0,-6.739500030E-1,-1.900900573E-1,-3.492225794E-1,7.824955248E-1
5.357461083E0,-7.266983201E-1,1.347432375E-2,-4.482159039E-1,8.539142242E-1
5.367407083E0,-6.913332635E-1,2.158739394E-1,-4.836980510E-1,8.709230985E-1
5.377354083E0,-8.501929034E-1,2.532072419E-1,-4.029328731E-1,9.743186238E-1
5.387301083E0,-9.089259920E-1,3.870962012E-1,-2.126924694E-1,1.010558269E0
5.397247083E0,-9.710788245E-1,5.006070292E-1,1.815793618E-1,1.107507357E0
5.407194083E0,-8.272126150E-1,6.142815793E-1,5.269136524E-1,1.157264259E0
5.417140083E0,-6.143991083E-1,6.125046104E-1,7.268697897E-1,1.131807339E0
5.427087083E0,-3.470239167E-1,5.300138462E-1,9.281613580E-1,1.123754325E0
5.437034083E0,-3.703845665E-2,5.048667258E-1,1.040310881E0,1.156939492E0
5.446980083E0,1.585083684E-1,4.950603604E-1,1.083361591E0,1.201616412E0
5.456927083E0,-1.198606119E-1,4.102821654E-1,1.026200453E0,1.111658847E0
5.466873083E0,-8.057368152E-1,3.367446578E-1,8.610329834E-1,1.226371305E0
5.476820083E0,-9.536045668E-1,3.724179357E-1,7.651538495E-1,1.278091234E0
5.486767083E0,-6.518864849E-1,5.016975349E-1,6.990333887E-1,1.079492512E0
5.496713083E0,-7.205705112E-1,1.867987765E0,-4.886408485E-2,2.002745079E0
5.506660083E0,-3.178379198E0,7.611876685E0,-1.430692048E0,8.371955610E0
5.516606083E0,-7.563829529E0,1.198909589E1,-1.169657139E0,1.422385444E1
5.526553083E0,-8.561159867E0,1.304497206E1,-3.351102440E0,1.595915542E1
5.536500083E0,-6.870207081E0,9.366769359E0,-3.204605130E0,1.205012895E1
5.546446083E0,-4.621500380E0,1.920695736E0,-2.236687456E0,5.481797940E0
5.556393083E0,-2.329504696E0,-5.223966783E-1,-6.107580106E-1,2.464247505E0
5.566340083E0,-3.081362781E-1,1.927536394E0,1.466737794E0,2.441651955E0
5.576286083E0,-1.036163743E0,2.346990502E0,1.697792859E0,3.076442802E0
5.586233083E0,-3.058092032E0,1.295342454E0,1.513244208E0,3.649622855E0
5.596179083E0,-3.897147305E0,5.887327552E-1,1.288314686E0,4.146579085E0
5.606126083E0,-3.642081526E0,4.103096473E-1,8.614422154E-1,3.764995955E0
5.616073333E0,-3.009805433E0,2.820585734E-1,2.598643335E-1,3.034141601E0
5.626019333E0,-2.106601526E0,-1.044786340E-1,3.790238276E-3,2.109194192E0
5.635966333E0,-9.315614408E-1,-4.149184227E-2,-3.960319161E-2,9.333256151E-1
5.645913333E0,-1.187473020E-1,2.881104416E-1,1.564048326E-1,3.486703600E-1
5.655859333E0,1.364006308E-1,6.466242832E-1,3.602481258E-1,7.526664652E-1
5.665806333E0,-3.013757274E-2,9.606624484E-1,4.721650394E-1,1.070850334E0
5.675752333E0,-5.015933083E-1,1.247884698E0,5.140965557E-1,1.439828926E0
5.685699333E0,-1.040760971E0,1.435468054E0,5.916259575E-1,1.869163772E0
5.695646333E0,-1.555149302E0,1.617517605E0,5.907979918E-1,2.320322137E0
5.705592333E0,-1.882706230E0,1.752240962E0,4.623381722E-1,2.613175793E0
5.715539333E0,-1.918630938E0,1.806643456E0,3.631143944E-1,2.660255123E0
5.725486333E0,-1.758933392E0,1.792235332E0,3.916348100E-1,2.541521589E0
5.735432333E0,-1.556230306E0,1.685739409E0,4.352690721E-1,2.335172218E0
5.745379333E0,-1.354917834E0,1.575903556E0,4.763562870E-1,2.132179558E0
5.755325333E0,-1.243750424E0,1.485538931E0,4.808118653E-1,1.996226711E0
5.765272333E0,-1.327849465E0,1.381322252E0,4.970425665E-1,1.979466261E0
5.775219333E0,-1.448169083E0,1.148242296E0,4.824935246E-1,1.910092685E0
5.785165333E0,-1.412453998E0,9.269766390E-1,4.714656758E-1,1.754021627E0
5.795112333E0,-1.245014592E0,7.750238764E-1,4.841284060E-1,1.544378081E0
5.805058333E0,-1.141927595E0,5.899554080E-1,5.404651594E-1,1.394327295E0
5.815005333E0,-1.059887944E0,3.690008229E-1,5.025997603E-1,1.229687188E0
5.824952333E0,-8.298172572E-1,9.912550807E-2,4.247358978E-1,9.374556681E-1
5.834898333E0,-6.095386103E-1,-2.306650561E-1,3.058935968E-1,7.199406768E-1
5.844845333E0,-3.221348047E-1,-5.722763515E-1,2.117908287E-1,6.900191374E-1
5.854792333E0,-8.832279542E-2,-9.121942931E-1,9.940619269E-2,9.218356338E-1
5.864738333E0,-6.903003529E-4,-1.236427664E0,-4.200402182E-2,1.237141132E0
5.874685333E0,2.384728432E-2,-1.579622970E0,-1.819115567E-1,1.590241879E0
5.884631333E0,1.894699600E-1,-1.882002372E0,-1.947380090E-1,1.901513788E0
5.894578333E0,3.657261629E-1,-2.133198756E0,-1.804170449E-1,2.171829383E0
5.904525333E0,5.166609252E-1,-2.400826986E0,-1.696406265E-1,2.461643083E0
5.914471333E0,8.181750854E-1,-2.552618365E0,-1.638295905E-1,2.685537399E0
5.924418333E0,9.964938205E-1,-2.718461189E0,-1.447279247E-1,2.898961425E0
5.934364333E0,9.902733332E-1,-2.983528923E0,-1.459932804E-1,3.146966817E0
5.944311333E0,1.136496555E0,-3.070965847E0,-1.551815585E-1,3.278191112E0
5.954258333E0,1.440195089E0,-3.005390493E0,-1.192808970E-1,3.334780629E0
5.964204333E0,1.575021065E0,-2.961981348E0,-1.898824446E-1,3.360071458E0
5.974151333E0,1.514166460E0,-2.989569681E0,-3.254700200E-1,3.366921098E0
5.984098333E0,1.520403100E0,-2.923744066E0,-4.517067282E-1,3.326250730E0
5.994044333E0,1.449646090E0,-2.760707322E0,-5.188444217E-1,3.161040689E0
6.003991333E0,1.360289525E0,-2.700970412E0,-5.456750286E-1,3.073009925E0
6.013937333E0,1.489222677E0,-2.651350940E0,-5.610998738E-1,3.092293495E0
6.023884333E0,1.809497921E0,-2.591546203E0,-5.719979874E-1,3.212098403E0
6.033831333E0,2.118315984E0,-2.618879013E0,-5.608835999E-1,3.414729902E0
6.043777333E0,2.263763719E0,-2.743462129E0,-5.278433232E-1,3.595807170E0
6.053724333E0,2.400347076E0,-2.756533579E0,-5.914095740E-1,3.702689393E0
6.063671333E0,2.490394635E0,-2.860607001E0,-6.559067380E-1,3.849071512E0
6.073617333E0,2.638491159E0,-2.880292237E0,-6.537595674E-1,3.960444488E0
6.083564333E0,2.889926402E0,-2.848895613E0,-7.569419467E-1,4.128055467E0
6.093510333E0,2.972312794E0,-2.903941301E0,-7.917738104E-1,4.230180161E0
6.103457333E0,2.918743235E0,-2.871211511E0,-7.720182614E-1,4.166404903E0
6.113404333E0,2.632250426E0,-2.757545148E0,-7.574915850E-1,3.886719831E0
6.123350333E0,2.058490782E0,-2.713886327E0,-7.725621255E-1,3.492766172E0
6.133297333E0,1.421206110E0,-2.667344245E0,-7.095444167E-1,3.104513715E0
6.143244333E0,9.396076481E-1,-2.626529510E0,-5.125611500E-1,2.836236720E0
6.153190333E0,7.308724281E-1,-2.530503026E0,-3.071787965E-1,2.651787866E0
6.163137333E0,7.860183960E-1,-2.368130525E0,-2.308469045E-1,2.505824694E0
6.173083333E0,8.836160997E-1,-2.311531817E0,-2.683065800E-1,2.489165557E0
6.183030333E0,1.076276301E0,-2.373174334E0,-3.347087304E-1,2.627233721E0
6.192977333E0,1.268055107E0,-2.431987967E0,-3.009256745E-1,2.759182033E0
6.202923333E0,1.434929233E0,-2.269296209E0,-2.347305886E-1,2.695148537E0
6.212870333E0,1.294436721E0,-2.144630647E0,-1.976732747E-1,2.512783668E0
6.222817333E0,1.079556735E0,-2.063530351E0,-1.550446241E-1,2.334017799E0
6.232763333E0,7.699847460E-1,-1.998806351E0,-1.403437737E-1,2.146578607E0
6.242710333E0,3.945587102E-1,-2.004428449E0,-1.635419440E-1,2.049428201E0
6.252656333E0,1.696736267E-1,-1.907544179E0,-2.032959938E-1,1.925835714E0
6.262603333E0,7.335039675E-2,-1.755052888E0,-1.964910042E-1,1.767540561E0
6.272550333E0,7.223767161E-2,-1.585679516E0,-1.436801219E-1,1.593813598E0
6.282496333E0,1.935989714E-1,-1.237486010E0,-1.785143244E-1,1.265195459E0
6.292443333E0,2.233881231E-1,-9.323595858E-1,-2.942483369E-1,1.002885205E0
6.302390333E0,9.274151802E-2,-8.225044370E-1,-4.659459043E-1,9.498526853E-1
6.312336333E0,-1.484733769E-1,-6.832512420E-1,-5.358809423E-1,8.809341563E-1
6.322283333E0,-5.133460656E-1,-3.424129486E-1,-4.089729738E-1,7.402902834E-1
6.332229333E0,-9.372405490E-1,-1.241948605E-2,-2.848494494E-1,9.796495798E-1
6.342176333E0,-1.262652426E0,3.152105319E-1,-2.806358727E-1,1.331317138E0
6.352123333E0,-1.395415065E0,6.462997627E-1,-1.787750372E-1,1.548175410E0
6.362069333E0,-1.350367531E0,8.893895674E-1,5.164268173E-2,1.617767980E0
6.372016333E0,-1.228532899E0,1.237898823E0,2.599134866E-1,1.763304171E0
6.381962333E0,-1.176602315E0,1.689230196E0,4.227875324E-1,2.101580587E0
6.391909333E0,-1.242092446E0,2.038326513E0,6.275067385E-1,2.468062666E0
6.401856333E0,-1.309338057E0,2.222165312E0,8.598623709E-1,2.718776952E0
6.411802333E0,-1.425423414E0,2.390038288E0,1.184814291E0,3.024549526E0
6.421749333E0,-1.829607372E0,2.575594999E0,1.478557355E0,3.488163498E0
6.431696333E0,-2.939083944E0,3.752243654E0,2.061699003E0,5.193086717E0
6.441642333E0,-5.779569215E0,8.316884247E0,3.273517782E0,1.064377295E1
6.451589333E0,-7.622712160E0,1.107375404E1,1.171640953E-1,1.344423656E1
6.461535333E0,-9.026626300E0,9.270328892E0,-9.892354524E-1,1.297680881E1
6.471482333E0,-7.102680096E0,5.678425832E0,-1.240664556E0,9.177790204E0
6.481429333E0,-3.325214478E0,2.437080892E0,-5.493178439E-1,4.159106237E0
6.491375333E0,6.172086954E-2,2.021651423E0,1.083165052E0,2.294369297E0
6.501322333E0,6.733571684E-1,1.710382499E0,1.893745919E0,2.639146032E0
6.511269333E0,-2.212013376E-1,8.276727909E-1,1.317379879E0,1.571452203E0
6.521215333E0,-1.240854591E0,1.535987538E-1,2.955919540E-1,1.284790759E0
6.531162333E0,-1.677990971E0,1.192276508E-1,-3.841071045E-1,1.725516502E0
6.541108333E0,-1.874203940E0,3.374644500E-1,-4.761915417E-1,1.962977597E0
6.551055333E0,-1.895887462E0,9.221994638E-2,-6.417917056E-1,2.003694184E0
6.561002333E0,-1.489139939E0,7.815973163E-2,-9.581646641E-1,1.772491530E0
6.570948333E0,-9.910738170E-1,2.469244087E-1,-1.016126797E0,1.440733370E0
6.580895333E0,-7.354776952E-1,4.894926417E-1,-6.886078763E-1,1.120138962E0
6.590842333E0,-6.365664876E-1,8.583431911E-1,-3.520503294E-1,1.125126376E0
6.600788333E0,-6.682472867E-1,1.160878714E0,-1.886509113E-1,1.352694714E0
6.610734875E0,-7.780601893E-1,1.367594744E0,-1.645274922E-2,1.573519538E0
6.620680875E0,-1.054342883E0,1.462064114E0,5.862542666E-2,1.803526360E0
6.630627875E0,-1.275894323E0,1.457601519E0,1.050931764E-1,1.939987909E0
6.640574875E0,-1.340491145E0,1.517247212E0,1.167174411E-1,2.027949352E0
6.650520875E0,-1.376390857E0,1.512623819E0,1.060311428E-1,2.047858689E0
6.660467875E0,-1.479287380E0,1.370286802E0,8.208906054E-2,2.018097046E0
6.670413875E0,-1.455491405E0,1.227933413E0,1.508106552E-2,1.904337979E0
6.680360875E0,-1.328676407E0,1.140935031E0,-2.038463630E-2,1.751436346E0
6.690307875E0,-1.147288177E0,1.019005381E0,-6.866392650E-2,1.536019812E0
6.700253875E0,-1.028201298E0,8.149802399E-1,-1.550646508E-1,1.321149403E0
6.710200875E0,-9.236202642E-1,5.706759685E-1,-2.176906328E-1,1.107309652E0
6.720147875E0,-7.929102167E-1,3.857069027E-1,-2.081480134E-1,9.059812482E-1
6.730093875E0,-6.809192993E-1,2.272011656E-1,-1.788311704E-1,7.397648609E-1
6.740040875E0,-6.863037810E-1,7.189794838E-2,-1.677893615E-1,7.101658008E-1
6.749987875E0,-8.477632391E-1,-6.496315062E-2,-1.261056940E-1,8.595495138E-1
6.759933875E0,-9.581507038E-1,-2.209955156E-1,-9.494584523E-2,9.878798017E-1
6.769880875E0,-7.578280923E-1,-3.252443540E-1,-9.426413298E-2,8.300439952E-1
6.779826875E0,-5.275866669E-1,-4.164913237E-1,-1.354355478E-1,6.856788618E-1
6.789773875E0,-2.659842669E-1,-6.042541891E-1,-1.887293736E-1,6.866509534E-1
6.799720875E0,-6.920852154E-2,-7.446312189E-1,-2.588971674E-1,7.913868933E-1
6.809666875E0,5.299126893E-2,-8.617749220E-1,-2.434511626E-1,8.970688710E-1
6.819613875E0,1.699475505E-1,-1.029316362E0,-1.456037828E-1,1.053363567E0
6.829560875E0,2.251023075E-1,-1.280125076E0,-8.425019145E-2,1.302493514E0
6.839506875E0,4.025120929E-1,-1.495199701E0,-4.042180181E-2,1.548958376E0
6.849453875E0,6.603076449E-1,-1.652338943E0,1.733352263E-2,1.779474816E0
6.859399875E0,8.123668268E-1,-1.840582450E0,3.234562755E-2,2.012145585E0
6.869346875E0,9.452611747E-1,-2.010952188E0,4.929787517E-2,2.222583558E0
6.879293875E0,1.143147836E0,-2.244553716E0,-1.402743381E-2,2.518929361E0
6.889239875E0,1.400986438E0,-2.379178839E0,-9.751865666E-2,2.762745887E0
6.899186875E0,1.568998579E0,-2.423965003E0,-1.450214366E-1,2.891088738E0
6.909133875E0,1.753564771E0,-2.467659491E0,-2.216936366E-1,3.035371615E0
6.919079875E0,1.930948537E0,-2.516950350E0,-3.244550530E-1,3.188866946E0
6.929026875E0,2.047832039E0,-2.581583133E0,-4.066972009E-1,3.320179234E0
6.938972875E0,2.163940638E0,-2.694673546E0,-4.263052174E-1,3.482189074E0
6.948919875E0,2.239490173E0,-2.796113382E0,-4.297854801E-1,3.608085620E0
6.958866875E0,2.275249405E0,-2.891066902E0,-4.514213475E-1,3.706589931E0
6.968812875E0,2.210841009E0,-2.976447945E0,-4.880343096E-1,3.739684187E0
6.978759875E0,2.124084409E0,-3.037057258E0,-5.523817484E-1,3.747075788E0
6.988706875E0,2.177030069E0,-3.046833218E0,-5.634868169E-1,3.786841689E0
6.998652875E0,2.202150292E0,-3.060606920E0,-5.752350060E-1,3.814141573E0
7.008599875E0,2.351989579E0,-3.044581456E0,-5.515982215E-1,3.886591285E0
7.018545875E0,2.493432848E0,-2.914955117E0,-5.547580934E-1,3.875813107E0
7.028492875E0,2.526545631E0,-2.728737085E0,-5.343266793E-1,3.756986014E0
7.038439875E0,2.281695814E0,-2.536081855E0,-5.364457103E-1,3.453349238E0
7.048385875E0,1.831411969E0,-2.336340968E0,-5.533242464E-1,3.019722941E0
7.058332875E0,1.479880873E0,-2.067525169E0,-5.032417846E-1,2.591902779E0
7.068279875E0,1.013286220E0,-1.790001696E0,-4.669153726E-1,2.109233273E0
7.078225875E0,5.763992232E-1,-1.613147396E0,-4.131011081E-1,1.762138789E0
7.088172875E0,2.787648368E-1,-1.497874217E0,-2.942342305E-1,1.551744433E0
7.098118875E0,1.506330460E-1,-1.412253438E0,-1.387356798E-1,1.427024063E0
7.108065875E0,2.650958008E-1,-1.375035911E0,6.584545892E-2,1.401904121E0
7.118012875E0,5.622597787E-1,-1.431332318E0,1.809479721E-1,1.548415459E0
7.127958875E0,8.193498641E-1,-1.585646771E0,2.113394602E-1,1.797296372E0
7.137905875E0,9.881098634E-1,-1.771404626E0,2.218316309E-1,2.040452088E0
7.147852875E0,1.165714069E0,-1.844856180E0,2.624136829E-1,2.198009226E0
7.157798875E0,1.194840804E0,-1.916561170E0,3.918921240E-1,2.292254502E0
7.167745875E0,1.030192201E0,-1.930672256E0,4.735717698E-1,2.238986724E0
7.177691875E0,9.385144380E-1,-1.887074246E0,3.849994627E-1,2.142447934E0
7.187638875E0,9.048561106E-1,-1.853151625E0,2.325602118E-1,2.075336064E0
7.197585875E0,8.420691475E-1,-1.721951800E0,9.933593474E-2,1.919392112E0
7.207531875E0,5.057888317E-1,-1.540358917E0,4.627954245E-2,1.621933947E0
7.217478875E0,-5.231927767E-2,-1.431786647E0,-3.922085680E-2,1.433278963E0
7.227425875E0,-4.448525854E-1,-1.194260468E0,-1.347560283E-1,1.281526853E0
7.237371875E0,-4.935935864E-1,-8.923219460E-1,-7.494727135E-2,1.022492140E0
7.247318875E0,-5.251023312E-1,-7.068839335E-1,-1.093662485E-1,8.873434116E-1
7.257264875E0,-3.723970319E-1,-3.917137474E-1,-2.782642420E-1,6.079064054E-1
7.267211875E0,-2.745218047E-1,-9.884835005E-2,-4.334108269E-1,5.224731213E-1
7.277158875E0,-8.828477025E-2,3.412826818E-1,-3.810862868E-1,5.191289122E-1
7.287104875E0,-1.147019058E-1,9.361614454E-1,-1.005522287E-1,9.485070004E-1
7.297051875E0,-4.379628843E-1,1.387619119E0,9.861446142E-2,1.458431733E0
7.306998875E0,-8.963351825E-1,1.848283818E0,2.235717988E-1,2.066289955E0
7.316944875E0,-1.462664477E0,2.487324262E0,3.654346792E-1,2.908558382E0
7.326891875E0,-2.183316557E0,3.188855655E0,4.843424872E-1,3.894901696E0
7.336837875E0,-4.646811515E0,6.857998679E0,4.657213712E-1,8.297101876E0
7.346784875E0,-7.596819520E0,1.205788838E1,-4.907895541E-1,1.425991632E1
7.356731875E0,-9.654036047E0,1.226539086E1,-2.509764122E0,1.580946365E1
7.366677875E0,-9.321307257E0,8.599733364E0,-2.967366049E0,1.302487790E1
7.376624875E0,-6.205995542E0,3.890679992E0,-2.523103960E0,7.747117210E0
7.386571875E0,-2.229105372E0,2.894205687E0,-3.233768264E-1,3.667411879E0
7.396517875E0,-5.384785679E-1,3.028771169E0,1.571876578E0,3.454592587E0
7.406464875E0,-1.136689367E0,2.350950821E0,1.910729742E0,3.235725673E0
7.416410875E0,-2.174476883E0,1.798844440E0,1.489580526E0,3.191087773E0
7.426357875E0,-2.989167393E0,1.628238475E0,8.111444664E-1,3.499176700E0
7.436304875E0,-3.411731635E0,8.575222421E-1,2.473068531E-1,3.526530565E0
7.446250875E0,-3.058690787E0,4.693413824E-1,-1.160192835E-1,3.096664518E0
7.456197875E0,-2.138967765E0,6.341504180E-1,-4.871311706E-2,2.231524775E0
7.466144875E0,-1.589888488E0,9.416736156E-1,1.000259427E-1,1.850540405E0
7.476090875E0,-1.582895802E0,1.106436458E0,1.852117618E-1,1.940119624E0
7.486037875E0,-1.473977962E0,1.194641706E0,1.985597857E-1,1.907670262E0
7.495983875E0,-1.207352238E0,1.292441066E0,3.256735396E-1,1.798378878E0
7.505930875E0,-1.043628299E0,1.257752459E0,4.471167004E-1,1.694406863E0
7.515877875E0,-9.464906980E-1,1.096681548E0,4.873817968E-1,1.528429284E0
7.525823875E0,-8.829460819E-1,9.411210537E-1,5.423643351E-1,1.399807734E0
7.535770875E0,-9.120883124E-1,7.556654996E-1,6.874817026E-1,1.369513245E0
7.545717875E0,-8.324212416E-1,5.317235720E-1,9.310626733E-1,1.357399271E0
7.555663875E0,-6.959018393E-1,3.807519722E-1,1.028995349E0,1.299262431E0
7.565610875E0,-4.240350359E-1,3.460896778E-1,1.015289476E0,1.153428150E0
7.575556875E0,-3.444972617E-1,2.361947680E-1,9.161838484E-1,1.006905743E0
7.585503875E0,-5.078640085E-1,5.888146162E-3,7.422876549E-1,8.994173025E-1
7.595450875E0,-7.214651352E-1,-1.407062280E-1,5.285941422E-1,9.053849740E-1
7.605396875E0,-7.621684805E-1,-2.579592741E-1,3.202765596E-1,8.660374439E-1
7.615343875E0,-6.614142305E-1,-3.635518026E-1,1.879190044E-1,7.777867636E-1
7.625290875E0,-5.931295690E-1,-5.279977262E-1,4.963935256E-2,7.956433559E-1
7.635236875E0,-5.541175309E-1,-7.283981788E-1,-1.002247846E-1,9.206818953E-1
7.645183875E0,-6.605766168E-1,-8.280663085E-1,-1.479381009E-1,1.069551756E0
7.655130875E0,-5.567300668E-1,-8.589290822E-1,-1.541232308E-1,1.035114248E0
7.665076875E0,-3.192778917E-1,-9.745080703E-1,-2.207709642E-1,1.048972912E0
7.675023875E0,-1.271395183E-1,-1.246101882E0,-3.307231951E-1,1.295496889E0
7.684969875E0,8.097589687E-3,-1.454768543E0,-3.429497596E-1,1.494667730E0
7.694916875E0,1.939897116E-1,-1.535805105E0,-3.237697593E-1,1.581504406E0
7.704863875E0,3.441375118E-1,-1.547118883E0,-2.472939344E-1,1.604107775E0
7.714809875E0,1.426828062E-1,-1.615178134E0,-1.579122083E-1,1.629139360E0
7.724756875E0,5.051833525E-2,-1.681045264E0,-1.429971123E-1,1.687872464E0
7.734703875E0,2.449397175E-1,-1.570239358E0,-1.429176084E-1,1.595641736E0
7.744649875E0,3.666357704E-1,-1.532453481E0,-1.545372685E-1,1.583261579E0
7.754596875E0,4.734051973E-1,-1.670291065E0,-1.630425918E-1,1.743722343E0
7.764542875E0,6.463554575E-1,-1.678756664E0,-2.070346669E-1,1.810763007E0
7.774489875E0,8.176481782E-1,-1.689500923E0,-2.473395244E-1,1.893182176E0
7.784436875E0,1.003095839E0,-1.766536235E0,-2.657991843E-1,2.048780304E0
7.794382875E0,1.181148672E0,-1.848611847E0,-3.239029296E-1,2.217519121E0
7.804329875E0,1.305382562E0,-1.948224428E0,-3.571690186E-1,2.372166049E0
7.814276875E0,1.478080661E0,-1.936410713E0,-3.358862500E-1,2.459111316E0
7.824222875E0,1.689297147E0,-2.003623288E0,-4.208333930E-1,2.654304405E0
7.834169875E0,1.723838696E0,-2.130348823E0,-4.797944498E-1,2.782123051E0
7.844115875E0,1.840048599E0,-2.147168924E0,-6.546261978E-1,2.902524538E0
7.854062875E0,1.857180064E0,-2.182756832E0,-8.633051383E-1,2.993132296E0
7.864009875E0,1.831012166E0,-2.307096704E0,-1.041503713E0,3.124104790E0
7.873955875E0,1.849281791E0,-2.443673043E0,-1.071775918E0,3.246549661E0
7.883902875E0,1.950105916E0,-2.537926067E0,-1.009952211E0,3.356186119E0
7.893849875E0,2.095834902E0,-2.650400183E0,-8.555915646E-1,3.485567671E0
7.903795875E0,2.144164624E0,-2.825070548E0,-6.479381526E-1,3.605314048E0
7.913742875E0,2.106877807E0,-2.972909794E0,-4.301784861E-1,3.669084391E0
7.923689875E0,2.162165862E0,-3.027988812E0,-2.438557899E-1,3.728691876E0
7.933635875E0,2.264696204E0,-2.987378730E0,-9.261755705E-2,3.749914477E0
7.943582875E0,2.277666059E0,-2.903267702E0,-3.124514502E-2,3.690217105E0
7.953528875E0,2.037879931E0,-2.753567287E0,-3.181696616E-2,3.425799138E0
7.963475875E0,1.584904175E0,-2.557418929E0,-5.137480617E-2,3.009144761E0
7.973422875E0,1.284439444E0,-2.309908630E0,-3.309757948E-2,2.643209793E0
7.983368875E0,1.160170470E0,-2.036627312E0,-4.458381336E-2,2.344319526E0
7.993315875E0,1.003776601E0,-1.844714677E0,-7.041918755E-2,2.101308775E0
8.003262875E0,8.251467937E-1,-1.700723484E0,-6.744295478E-2,1.891527465E0
8.013208875E0,7.503407326E-1,-1.588147625E0,-5.804881811E-2,1.757439547E0
8.023155875E0,7.878667009E-1,-1.528675010E0,-4.158890605E-2,1.720264765E0
8.033101875E0,9.891711330E-1,-1.528234130E0,8.209256887E-2,1.822278320E0
8.043048875E0,1.114206750E0,-1.545412665E0,1.710685166E-1,1.912856875E0
8.052995875E0,1.040023417E0,-1.551593172E0,2.241717597E-1,1.881314184E0
8.062941875E0,8.890492594E-1,-1.580269672E0,3.175576043E-1,1.840788867E0
8.072888875E0,7.989875203E-1,-1.570054586E0,3.813998802E-1,1.802475611E0
8.082835875E0,7.563361752E-1,-1.560148818E0,4.301773167E-1,1.786382173E0
8.092781875E0,7.484506202E-1,-1.592672201E0,3.687804194E-1,1.797993901E0
8.102728875E0,8.040257737E-1,-1.635474404E0,2.109557732E-1,1.834594317E0
8.112675875E0,8.200105995E-1,-1.638917245E0,8.492496014E-2,1.834578798E0
8.122621875E0,8.450635797E-1,-1.513071715E0,3.109552938E-2,1.733345148E0
8.132568875E0,8.501901260E-1,-1.452489299E0,6.897850670E-2,1.684430600E0
8.142514875E0,5.039571914E-1,-1.359089969E0,3.622934818E-2,1.449969296E0
8.152461875E0,-1.490418725E-2,-1.210153785E0,4.699414529E-2,1.211157615E0
8.162408875E0,-4.010467806E-1,-1.011183561E0,8.552956223E-2,1.091167274E0
8.172354875E0,-6.538396742E-1,-7.661279225E-1,-4.586665593E-2,1.008247025E0
8.182301875E0,-6.886425941E-1,-6.659768128E-1,-1.875786050E-1,9.761861865E-1
8.192248875E0,-5.665267843E-1,-6.032987541E-1,-2.594760418E-1,8.673233539E-1
8.202194875E0,-4.567900416E-1,-4.787267482E-1,-3.352197039E-1,7.417605351E-1
8.212141875E0,-3.944385499E-1,-4.623241389E-1,-3.819787180E-1,7.177974088E-1
8.222087875E0,-3.000209275E-1,-4.848277330E-1,-3.876446700E-1,6.894482416E-1
8.232034875E0,-2.065998168E-1,-3.962353992E-1,-3.422516385E-1,5.628695764E-1
8.241981875E0,-8.845960200E-3,-1.438081759E-1,-3.001820183E-1,3.329688973E-1
8.251927875E0,1.813221574E-1,7.539984584E-2,-2.660155678E-1,3.306465542E-1
8.261874875E0,9.823936254E-2,2.287348902E-1,-1.953532092E-1,3.164387756E-1
8.271821875E0,-2.491603839E-1,5.239748418E-1,2.568331003E-2,5.807668760E-1
8.281767875E0,-7.830342695E-1,9.116727215E-1,4.226952926E-1,1.273954916E0
8.291714875E0,-1.524880167E0,1.326094716E0,6.802861921E-1,2.132270157E0
8.301661875E0,-2.206957142E0,1.810371056E0,9.084655968E-1,2.995565544E0
8.311607875E0,-3.059000397E0,3.154782760E0,1.194058812E0,4.553670403E0
8.321554875E0,-6.344183375E0,8.909966746E0,8.859712851E-1,1.097365551E1
8.331500875E0,-1.005266179E1,1.329625264E1,-1.073410800E0,1.670324981E1
8.341447875E0,-1.145702032E1,1.275515131E1,-2.785773751E0,1.737002403E1
8.351394875E0,-9.406370212E0,7.570449747E0,-3.202179705E0,1.249181591E1
8.361340875E0,-4.924211612E0,2.854943973E0,-2.113655022E0,6.071746259E0
8.371287875E0,-7.249021286E-1,3.216208929E0,4.258901747E-1,3.324284196E0
8.381234875E0,1.597637656E-1,3.389529172E0,2.143864077E0,4.013799404E0
8.391180875E0,-7.046280777E-1,2.776524625E0,2.195769811E0,3.609292837E0
8.401127875E0,-2.169360130E0,2.132187772E0,1.650895851E0,3.460896586E0
8.411073875E0,-3.408116886E0,1.362041643E0,5.596113189E-1,3.712624809E0
8.421020875E0,-3.737794014E0,3.282100618E-1,-1.498476553E-1,3.755167141E0
8.430967875E0,-2.823766619E0,-1.638506770E-2,-3.227394068E-1,2.842197585E0
8.440913875E0,-1.346444780E0,3.691464186E-2,-1.650692368E-1,1.357027667E0
8.450860875E0,-5.117271177E-1,5.840315938E-2,-1.110211201E-1,5.268787917E-1
8.460807875E0,-1.015411390E-1,3.937222660E-2,-2.223953025E-1,2.476296543E-1
8.470753875E0,8.347295031E-2,3.977276087E-3,-1.535900195E-1,1.748526416E-1
8.480700875E0,4.995524839E-2,-3.212518752E-2,1.627104334E-1,1.732115460E-1
8.490647875E0,-9.787537336E-2,1.173711598E-2,3.928674030E-1,4.050458554E-1
8.500593875E0,-2.828600805E-1,2.714979172E-2,4.608284211E-1,5.413961304E-1
8.510540875E0,-4.246679239E-1,6.761427820E-2,4.705067325E-1,6.374096967E-1
8.520486875E0,-4.718009406E-1,1.384386778E-1,5.196759689E-1,7.154191133E-1
8.530433875E0,-4.938201660E-1,1.775846171E-1,5.755601478E-1,7.788864720E-1
8.540380875E0,-6.953465000E-1,2.317029369E-1,5.664338136E-1,9.263046319E-1
8.550326875E0,-8.632767063E-1,1.894936413E-1,5.706578422E-1,1.052047948E0
8.560273875E0,-8.172009393E-1,1.922780854E-1,5.464690804E-1,1.001706890E0
8.570220875E0,-7.164028352E-1,1.538057452E-1,5.566946912E-1,9.202163923E-1
8.580166875E0,-6.887283289E-1,4.474932611E-2,5.429221594E-1,8.781307901E-1
8.590113875E0,-6.389906701E-1,-7.145005167E-2,4.595397313E-1,7.903106674E-1
8.600059875E0,-5.021111889E-1,-1.377919757E-1,4.128882694E-1,6.645141064E-1
8.610006875E0,-3.542412446E-1,-2.106535453E-1,4.114814293E-1,5.823905410E-1
8.619954125E0,-2.658407178E-1,-3.000422698E-1,3.956624087E-1,5.632454106E-1
8.629900125E0,-2.207853082E-1,-3.610673207E-1,3.620373738E-1,5.569441825E-1
8.639847125E0,-2.215083164E-1,-5.114150226E-1,2.378261411E-1,6.059476322E-1
8.649794125E0,-7.806500673E-2,-5.681756991E-1,2.791577697E-2,5.741925295E-1
8.659740125E0,2.406333894E-2,-6.556553078E-1,-1.445197821E-1,6.718250474E-1
8.669687125E0,-4.311270872E-2,-8.676654071E-1,-2.591403751E-1,9.065625727E-1
8.679634125E0,1.357394569E-2,-1.066654927E0,-3.778598662E-1,1.131686822E0
8.689580125E0,1.251029330E-1,-1.210112854E0,-4.444304895E-1,1.295199724E0
8.699527125E0,3.401126540E-1,-1.322557150E0,-4.555612493E-1,1.439572883E0
8.709473125E0,5.185357618E-1,-1.411368755E0,-4.257708549E-1,1.562728997E0
8.719420125E0,7.583010589E-1,-1.549579976E0,-4.357485072E-1,1.779352511E0
8.729367125E0,1.038239797E0,-1.645660254E0,-3.902349865E-1,1.984546017E0
8.739313125E0,1.010121049E0,-1.642686360E0,-2.289874168E-1,1.941957324E0
8.749260125E0,9.376459073E-1,-1.507250227E0,-2.087279475E-1,1.787330538E0
8.759207125E0,7.697999740E-1,-1.635074455E0,-1.961319852E-1,1.817836139E0
8.769153125E0,7.707133090E-1,-1.586615655E0,-1.503248978E-1,1.770295404E0
8.779100125E0,8.163127472E-1,-1.544927346E0,-3.217602175E-2,1.747627621E0
8.789047125E0,9.053799480E-1,-1.628385240E0,2.892266750E-2,1.863380761E0
8.798993125E0,1.134341418E0,-1.637601621E0,4.885465622E-2,1.992700755E0
8.808940125E0,1.375799557E0,-1.669943156E0,4.995864708E-2,2.164262098E0
8.818886125E0,1.518328801E0,-1.808452585E0,1.081490044E-1,2.363793414E0
8.828833125E0,1.591471037E0,-1.936604841E0,1.234954604E-1,2.509675178E0
8.838780125E0,1.713334758E0,-2.064918480E0,9.229245186E-2,2.684757386E0
8.848726125E0,1.881714689E0,-2.198916782E0,7.183658917E-2,2.895038114E0
8.858673125E0,2.029585218E0,-2.272399911E0,4.486685514E-2,3.047134809E0
8.868620125E0,2.116178534E0,-2.345177865E0,-5.329612814E-2,3.159258028E0
8.878566125E0,2.088984450E0,-2.494520431E0,-1.990649486E-1,3.259772241E0
8.888513125E0,2.002188527E0,-2.564229766E0,-2.621471230E-1,3.263855742E0
8.898460125E0,1.896976068E0,-2.502793071E0,-3.127676383E-1,3.155996666E0
8.908406125E0,1.751389022E0,-2.440278735E0,-3.794842958E-1,3.027595109E0
8.918353125E0,1.619424967E0,-2.401084848E0,-4.270899503E-1,2.927482108E0
8.928299125E0,1.550990324E0,-2.286488192E0,-3.892116507E-1,2.790176508E0
8.938246125E0,1.424843371E0,-2.115631381E0,-3.302600225E-1,2.571992701E0
8.948193125E0,1.273892236E0,-1.991106738E0,-2.275549952E-1,2.374676556E0
8.958139125E0,1.162903312E0,-1.871518314E0,-1.102176762E-1,2.206144340E0
8.968086125E0,1.030573513E0,-1.796256462E0,-2.847710967E-2,2.071093911E0
8.978033125E0,7.824717674E-1,-1.684656504E0,3.096685410E-3,1.857508868E0
8.987979125E0,7.225091556E-1,-1.601424898E0,-3.153286457E-2,1.757149824E0
8.997926125E0,8.845059729E-1,-1.589155101E0,-5.572396517E-2,1.819579597E0
9.007872125E0,1.045426025E0,-1.690791403E0,-1.087021510E-1,1.990855922E0
9.017819125E0,1.091326376E0,-1.862496060E0,-5.461175166E-2,2.159367332E0
9.027766125E0,1.228356459E0,-2.063857795E0,4.568312645E-2,2.402177249E0
9.037712125E0,1.405023648E0,-2.232858115E0,6.751904167E-2,2.638997089E0
9.047659125E0,1.429280238E0,-2.406150876E0,1.307531341E-1,2.801695989E0
9.057606125E0,1.347204626E0,-2.531696443E0,1.101089180E-1,2.869942710E0
9.067552125E0,1.367617840E0,-2.608920620E0,-9.499386549E-3,2.945663864E0
9.077499125E0,1.441163827E0,-2.510840009E0,-7.191600166E-2,2.895935538E0
9.087446125E0,1.178529119E0,-2.646142241E0,2.110917941E-3,2.896722993E0
9.097392125E0,1.025976944E0,-2.415917480E0,3.928269111E-2,2.625038874E0
9.107339125E0,8.000099060E-1,-2.203309211E0,-7.546416521E-2,2.345268037E0
9.117286125E0,5.832879011E-1,-1.910860135E0,-1.462072154E-1,2.003244314E0
9.127232125E0,2.312457577E-1,-1.526229705E0,-2.022878607E-1,1.556846842E0
9.137179125E0,-1.416192707E-1,-1.014384327E0,-3.271715963E-1,1.075208275E0
9.147125125E0,-6.235413761E-1,-4.750003177E-1,-4.658323952E-1,9.118272698E-1
9.157072125E0,-1.043795237E0,5.158881426E-2,-4.878074741E-1,1.153310901E0
9.167019125E0,-1.192157078E0,6.641010261E-1,-4.093751892E-1,1.424730402E0
9.176965125E0,-1.404444920E0,1.306884273E0,-2.938809856E-1,1.940818918E0
9.186912125E0,-1.664070797E0,1.945829408E0,-1.437924615E-1,2.564382962E0
9.196859125E0,-1.821743891E0,2.464096198E0,-1.356554031E-4,3.064395682E0
9.206805125E0,-2.154858743E0,2.954813247E0,5.893766798E-2,3.657569025E0
9.216752125E0,-2.393945252E0,3.322803671E0,1.794312409E-1,4.099291850E0
9.226698125E0,-2.315269649E0,3.726308329E0,4.784051514E-1,4.413016972E0
9.236645125E0,-3.229110226E0,5.767477757E0,1.537573303E0,6.786389629E0
9.246592125E0,-6.392660301E0,1.015437761E1,1.877956098E0,1.214513110E1
9.256538125E0,-8.749505700E0,1.137243099E1,-1.666699705E0,1.444520420E1
9.266485125E0,-1.003261169E1,8.578506802E0,-2.039817553E0,1.335683091E1
9.276432125E0,-7.483753080E0,5.089279094E0,-1.894649899E0,9.246459869E0
9.286378125E0,-3.625775688E0,4.074777823E0,-2.601109763E-1,5.460560536E0
9.296325125E0,-1.768326652E0,3.902152814E0,1.512320348E0,4.543224468E0
9.306272125E0,-1.798985650E0,3.190529712E0,1.695299460E0,4.036071044E0
9.316218125E0,-2.502444285E0,2.687927613E0,9.600719527E-1,3.795908377E0
9.326165125E0,-3.020293876E0,1.673217012E0,2.615116037E-2,3.452899383E0
9.336111125E0,-2.812261637E0,9.165101230E-1,-3.430396970E-1,2.977663943E0
9.346058125E0,-2.018054070E0,6.840546495E-1,-4.384819709E-2,2.131289670E0
9.356005125E0,-1.284636787E0,5.135749841E-1,1.784758059E-1,1.394956828E0
9.365951125E0,-8.250767733E-1,4.785390526E-1,1.296468774E-1,9.625796692E-1
9.375898125E0,-7.042230119E-1,4.597776765E-1,1.321869079E-1,8.513512441E-1
9.385845125E0,-7.865545857E-1,3.683278084E-1,3.215103221E-1,9.261222262E-1
9.395791125E0,-7.257983606E-1,2.928192043E-1,4.544034275E-1,9.049910616E-1
9.405738125E0,-6.503954449E-1,2.227911955E-1,4.230647635E-1,8.072384689E-1
9.415685125E0,-6.620718960E-1,1.873219854E-1,3.052492519E-1,7.527322416E-1
9.425631125E0,-5.739213194E-1,1.664146811E-1,2.120797177E-1,6.340799110E-1
9.435578125E0,-6.382329440E-1,8.996350586E-2,1.890615320E-1,6.716985828E-1
9.445525125E0,-6.938841113E-1,1.711947799E-2,1.807000136E-1,7.172312956E-1
9.455471125E0,-6.340497728E-1,1.149270236E-2,2.208856245E-1,6.715218952E-1
9.465418125E0,-7.603280693E-1,-5.527080595E-2,2.531657267E-1,8.032723823E-1
9.475364125E0,-9.456993505E-1,-1.263793802E-1,2.940167872E-1,9.983811298E-1
9.485311125E0,-9.301814248E-1,-1.079384315E-1,2.954961327E-1,9.819399944E-1
9.495258125E0,-8.094540364E-1,-1.522901469E-1,2.183677769E-1,8.521106805E-1
9.505204125E0,-6.467253669E-1,-2.655244017E-1,8.347492374E-2,7.040773899E-1
9.515151125E0,-4.041185788E-1,-3.410259891E-1,4.707951464E-2,5.308738378E-1
9.525098125E0,-2.494071364E-1,-2.997738826E-1,2.667032003E-2,3.908703191E-1
9.535044125E0,-3.482373601E-1,-3.635857165E-1,-5.798924960E-2,5.067806086E-1
9.544991125E0,-4.820514750E-1,-6.144447166E-1,-1.355443060E-1,7.926463229E-1
9.554938125E0,-4.249689093E-1,-7.607607633E-1,-1.216337069E-1,8.798580974E-1
9.564884125E0,-2.844293270E-1,-8.241135907E-1,3.638064489E-3,8.718236565E-1
9.574831125E0,-1.109512094E-1,-1.078651074E0,1.862338185E-2,1.084502255E0
9.584777125E0,2.142025128E-1,-1.332416725E0,-8.779945135E-2,1.352377828E0
9.594724125E0,6.101513619E-1,-1.532442371E0,-1.430555662E-1,1.655635588E0
9.604671125E0,9.395180395E-1,-1.822182432E0,-1.346227118E-1,2.054547696E0
9.614617708E0,1.202179060E0,-2.079596161E0,-2.200143528E-1,2.412127898E0
9.624564708E0,1.331664481E0,-2.326147517E0,-2.688924710E-1,2.693806920E0
9.634511708E0,1.681451938E0,-2.352862276E0,-3.705848336E-1,2.915574494E0
9.644457708E0,1.771068265E0,-2.612690905E0,-3.656753652E-1,3.177507677E0
9.654404708E0,1.872404752E0,-2.737178126E0,-4.416881454E-1,3.345613855E0
9.664351708E0,2.014293872E0,-2.826925285E0,-5.201857730E-1,3.509911624E0
9.674297708E0,2.103942797E0,-2.896704787E0,-5.691304033E-1,3.625104596E0
9.684244708E0,2.186113426E0,-2.967581812E0,-5.213143587E-1,3.722553207E0
9.694190708E0,2.257049800E0,-3.036892952E0,-5.283893435E-1,3.820495766E0
9.704137708E0,2.294501801E0,-3.051772946E0,-5.542786217E-1,3.858144816E0
9.714084708E0,2.439717402E0,-3.105795372E0,-5.518378477E-1,3.987820320E0
9.724030708E0,2.559172802E0,-3.170326998E0,-5.665016413E-1,4.113546257E0
9.733977708E0,2.658010627E0,-3.217135128E0,-4.915086886E-1,4.201970932E0
9.743924708E0,2.727495722E0,-3.196440663E0,-3.739702253E-1,4.218568424E0
9.753870708E0,2.726621563E0,-3.143767190E0,-2.601122189E-1,4.169579794E0
9.763817708E0,2.687852184E0,-2.935858328E0,-2.179244117E-1,3.986389912E0
9.773764708E0,2.516971985E0,-2.667402132E0,-2.153808729E-1,3.673767960E0
9.783710708E0,2.218829183E0,-2.422591492E0,-2.648988958E-1,3.295803984E0
9.793657708E0,1.865414990E0,-2.217340189E0,-3.059566554E-1,2.913757038E0
9.803603708E0,1.463710983E0,-2.014535362E0,-2.490843701E-1,2.502567799E0
9.813550708E0,1.132161576E0,-1.847163491E0,-1.771811593E-1,2.173751587E0
9.823497708E0,8.818910980E-1,-1.784099516E0,-1.159865391E-1,1.993538530E0
9.833443708E0,7.689761013E-1,-1.832609771E0,-1.717451490E-2,1.987480260E0
9.843390708E0,8.790461352E-1,-1.936960351E0,1.889668071E-1,2.135473242E0
9.853337708E0,1.078624177E0,-1.996202586E0,4.093871029E-1,2.305613298E0
9.863283708E0,1.128384859E0,-2.084172776E0,5.123202447E-1,2.424768151E0
9.873230708E0,1.286413756E0,-2.249417430E0,5.615197404E-1,2.651422928E0
9.883177708E0,1.518031616E0,-2.308739187E0,5.662794471E-1,2.820526375E0
9.893123708E0,1.641359334E0,-2.343932408E0,4.284546538E-1,2.893380892E0
9.903070708E0,1.575398356E0,-2.309155508E0,1.902344104E-1,2.801833020E0
9.913017708E0,1.288883328E0,-2.214989024E0,-4.100652337E-2,2.563021292E0
9.922963708E0,7.597076067E-1,-2.193266033E0,-2.574576560E-1,2.335349221E0
9.932910708E0,5.267198903E-1,-1.972315541E0,-4.657025870E-1,2.093881882E0
9.942856708E0,2.497826739E-1,-1.839944519E0,-5.118779759E-1,1.926085740E0
9.952803708E0,-2.239775225E-1,-1.740653535E0,-4.775069460E-1,1.818805526E0
9.962750708E0,-3.113936158E-1,-1.360424303E0,-5.586487576E-1,1.503266012E0
9.972696708E0,-1.921941778E-1,-8.045938307E-1,-6.680759633E-1,1.063313372E0
9.982643708E0,-3.021316262E-1,-6.404794443E-1,-8.707719596E-1,1.122381951E0
9.992590708E0,-3.586725935E-1,-4.052792877E-1,-9.003612828E-1,1.050498820E0
1.000253671E1,-3.270702933E-1,6.424160421E-2,-7.633726414E-1,8.329704377E-1
1.001248371E1,-6.301370354E-1,5.104262584E-1,-5.675248309E-1,9.897939596E-1
1.002243071E1,-1.093274961E0,9.776784307E-1,-3.667653593E-1,1.511827398E0
1.003237671E1,-1.487773737E0,1.450250984E0,-1.075536847E-1,2.080448607E0
1.004232371E1,-1.582730034E0,2.018855284E0,1.153516046E-1,2.567901286E0
1.005226971E1,-1.530049983E0,2.571103753E0,2.137707690E-1,2.999554200E0
1.006221671E1,-1.668934219E0,2.884391720E0,2.410456181E-1,3.341131547E0
1.007216371E1,-2.372948046E0,3.454895196E0,3.010438979E-1,4.202119783E0
1.008210971E1,-5.347848818E0,7.376439131E0,1.093196608E0,9.176405618E0
1.009205671E1,-8.380830567E0,1.195236251E1,-5.040880959E-2,1.459793930E1
1.010200371E1,-1.092098735E1,1.153548527E1,-2.124247838E0,1.602647229E1
1.011194971E1,-1.058543786E1,7.458583156E0,-2.329103869E0,1.315700126E1
1.012189671E1,-6.645188681E0,3.354834718E0,-1.654371436E0,7.625640526E0
1.013184371E1,-2.174606691E0,2.977372389E0,6.478727368E-1,3.743447567E0
1.014178971E1,-4.737504753E-1,2.966470841E0,2.337432643E0,3.806307938E0
1.015173671E1,-8.542057014E-1,2.402877020E0,2.299042164E0,3.433523005E0
1.016168371E1,-1.607979042E0,2.128366617E0,1.623672384E0,3.122795713E0
1.017162971E1,-2.577541245E0,1.347876179E0,8.409371996E-1,3.027815126E0
1.018157671E1,-2.961679632E0,5.086574757E-1,4.875139439E-1,3.044330553E0
1.019152271E1,-2.547113796E0,3.278305775E-1,6.875460219E-1,2.658567492E0
1.020146971E1,-1.843306522E0,3.918803930E-1,9.240530312E-1,2.098862354E0
1.021141671E1,-1.293168606E0,5.214201933E-1,9.022195280E-1,1.660772151E0
1.022136271E1,-1.042844772E0,6.188488394E-1,8.383398664E-1,1.474216007E0
1.023130971E1,-9.115724418E-1,6.558026576E-1,8.437719297E-1,1.404632518E0
1.024125671E1,-9.311544746E-1,6.139529657E-1,8.880552328E-1,1.425702983E0
1.025120271E1,-9.477205136E-1,5.273709047E-1,9.250365329E-1,1.425477755E0
1.026114971E1,-9.592823593E-1,5.377865499E-1,8.443601596E-1,1.386499584E0
1.027109671E1,-9.816890359E-1,6.189850795E-1,8.032963336E-1,1.411432213E0
1.028104271E1,-9.899238159E-1,5.750140178E-1,7.082521820E-1,1.346184027E0
1.029098971E1,-9.716680777E-1,5.359774214E-1,5.827580702E-1,1.253402417E0
1.030093571E1,-1.122650203E0,4.576960677E-1,4.984342039E-1,1.310826389E0
1.031088271E1,-1.377445548E0,4.313613778E-1,4.173064256E-1,1.502522389E0
1.032082971E1,-1.352901860E0,3.270382798E-1,3.602773619E-1,1.437740331E0
1.033077571E1,-1.036265485E0,2.041719067E-1,3.489513052E-1,1.112339578E0
1.034072271E1,-6.835946198E-1,1.824342978E-1,2.620839731E-1,7.545010843E-1
1.035066971E1,-5.852387515E-1,-1.069280326E-2,1.023917627E-1,5.942245412E-1
1.036061571E1,-5.747002782E-1,-3.019402760E-1,-8.140373033E-2,6.542743364E-1
1.037056271E1,-4.914850804E-1,-4.010950202E-1,-1.516475379E-1,6.522513130E-1
1.038050971E1,-5.114901228E-1,-4.575457942E-1,-7.112315577E-2,6.899484059E-1
1.039045571E1,-4.902755839E-1,-6.863420802E-1,-4.592399519E-2,8.447156993E-1
1.040040271E1,-3.328185448E-1,-9.443381917E-1,-8.460570216E-2,1.004838758E0
1.041034971E1,-1.161198556E-1,-1.105241872E0,-8.167865910E-2,1.114322583E0
1.042029571E1,6.202377358E-2,-1.224679438E0,-1.053119353E-1,1.230762884E0
1.043024271E1,1.337422307E-1,-1.479637921E0,-1.490350751E-1,1.493126523E0
1.044018871E1,3.255358377E-1,-1.667432361E0,-2.089607763E-1,1.711715183E0
1.045013571E1,6.279810208E-1,-1.791282236E0,-2.760353565E-1,1.918136525E0
1.046008271E1,9.178177797E-1,-2.005124853E0,-3.251682671E-1,2.229046781E0
1.047002871E1,1.034583753E0,-2.307101381E0,-2.655337207E-1,2.542358842E0
1.047997571E1,1.394491936E0,-2.343845285E0,-3.587920960E-1,2.750809017E0
1.048992271E1,1.596754142E0,-2.579492168E0,-4.139173063E-1,3.061818279E0
1.049986871E1,1.764043567E0,-2.748010678E0,-4.173239672E-1,3.292046732E0
1.050981571E1,2.098897820E0,-2.756333020E0,-5.083487427E-1,3.501594239E0
1.051976271E1,2.325567327E0,-2.926853031E0,-5.858326093E-1,3.783904320E0
1.052970871E1,2.536260487E0,-2.976391811E0,-5.901302397E-1,3.954716067E0
1.053965571E1,2.737938849E0,-3.107443117E0,-6.146055881E-1,4.186914364E0
1.054960271E1,2.858081296E0,-3.304868506E0,-6.363207583E-1,4.415392242E0
1.055954871E1,2.913485126E0,-3.442269888E0,-5.436659253E-1,4.542377153E0
1.056949571E1,2.931925783E0,-3.570112242E0,-4.535147238E-1,4.641935568E0
1.057944171E1,2.950467304E0,-3.588197680E0,-3.632746446E-1,4.659655391E0
1.058938871E1,2.931282004E0,-3.580133200E0,-3.784844220E-1,4.642522846E0
1.059933571E1,2.859070645E0,-3.647406000E0,-4.449204131E-1,4.655728693E0
1.060928171E1,2.913774856E0,-3.581852866E0,-4.715252443E-1,4.641345701E0
1.061922783E1,2.975140215E0,-3.400260567E0,-4.542537387E-1,4.540878514E0
1.062917483E1,2.833782315E0,-3.229825341E0,-4.316484761E-1,4.318380986E0
1.063912083E1,2.449883956E0,-3.102972921E0,-4.386498591E-1,3.977786576E0
1.064906783E1,2.051750258E0,-2.938682533E0,-4.207901236E-1,3.608683760E0
1.065901483E1,1.809231434E0,-2.674835697E0,-3.514819801E-1,3.248323255E0
1.066896083E1,1.580147173E0,-2.456549197E0,-3.033886313E-1,2.936587085E0
1.067890783E1,1.289408992E0,-2.387944400E0,-2.583546189E-1,2.726096315E0
1.068885483E1,1.136247903E0,-2.321800697E0,-1.433210298E-1,2.588891402E0
1.069880083E1,1.148843097E0,-2.237839358E0,1.958005942E-2,2.515581212E0
1.070874783E1,1.034767428E0,-2.180280536E0,1.183885753E-1,2.416274550E0
1.071869383E1,6.655683848E-1,-2.207962425E0,1.483918083E-1,2.310865525E0
1.072864083E1,5.475180344E-1,-2.169243332E0,1.875014218E-1,2.245116793E0
1.073858783E1,7.118496814E-1,-2.008492849E0,1.822951341E-1,2.138692360E0
1.074853383E1,8.683009994E-1,-1.830866132E0,1.595377707E-1,2.032601712E0
1.075848083E1,7.715219790E-1,-1.691274383E0,5.654725313E-2,1.859799128E0
1.076842783E1,4.529551452E-1,-1.380736946E0,-1.306291366E-1,1.458995150E0
1.077837383E1,3.044382066E-2,-9.046999168E-1,-3.688318384E-1,9.774690229E-1
1.078832083E1,-4.907970824E-1,-5.516444510E-1,-5.419385847E-1,9.159098242E-1
1.079826783E1,-9.270506063E-1,-2.816317266E-1,-5.690241301E-1,1.123622586E0
1.080821383E1,-1.215681596E0,7.319193721E-2,-4.945153268E-1,1.314452058E0
1.081816083E1,-1.555746157E0,2.976700544E-1,-2.654051185E-1,1.606049016E0
1.082810783E1,-1.781760045E0,4.998082995E-1,-9.457286596E-2,1.852949331E0
1.083805383E1,-1.478363666E0,9.066335911E-1,-5.497895680E-2,1.735098350E0
1.084800083E1,-1.225959686E0,9.859586728E-1,8.191949129E-2,1.575373752E0
1.085794683E1,-8.574585074E-1,1.228253841E0,1.518042433E-1,1.505618517E0
1.086789383E1,-5.269385031E-1,1.633168847E0,1.477065877E-1,1.722417459E0
1.087784083E1,-3.912500632E-1,2.043717061E0,1.239820949E-1,2.084520951E0
1.088778683E1,-5.972378227E-1,2.327354382E0,1.926728455E-1,2.410475941E0
1.089773383E1,-1.327507403E0,2.652782339E0,3.300180940E-1,2.984701322E0
1.090768083E1,-2.178901324E0,3.116187628E0,5.242052952E-1,3.838362607E0
1.091762683E1,-2.769726944E0,3.528898142E0,6.255469711E-1,4.529439088E0
1.092757383E1,-3.262096416E0,3.897358097E0,4.939610108E-1,5.106336323E0
1.093752083E1,-4.479145530E0,5.359419873E0,-5.329163309E-1,7.005007200E0
1.094746683E1,-6.104192594E0,7.445508782E0,-5.935778312E-1,9.646196291E0
1.095741383E1,-6.211157464E0,7.433132565E0,-3.789651362E-1,9.693995634E0
1.096736083E1,-6.265829515E0,5.133954161E0,-9.750313962E-1,8.158969976E0
1.097730683E1,-4.377620032E0,3.326828894E0,-6.338627350E-1,5.534720373E0
1.098725383E1,-2.482903475E0,3.228821958E0,5.903816700E-1,4.115659294E0
1.099719983E1,-2.058885030E0,2.962571917E0,1.231512494E0,3.812146765E0
1.100714683E1,-2.397037405E0,2.571273322E0,1.177007089E0,3.707098664E0
1.101709383E1,-2.740887600E0,2.124241991E0,6.247984544E-1,3.523526923E0
1.102703983E1,-2.781824249E0,1.457108599E0,8.588397659E-2,3.141510413E0
1.103698683E1,-2.321463313E0,1.279741498E0,1.507646084E-2,2.650878630E0
1.104693383E1,-1.800212542E0,1.266765942E0,-3.452539645E-2,2.201511561E0
1.105687983E1,-1.621343730E0,1.209697702E0,-1.691284470E-1,2.029957747E0
1.106682683E1,-1.669674184E0,1.118648368E0,-1.430615596E-1,2.014857975E0
1.107677383E1,-1.692513993E0,1.135916365E0,2.054349784E-1,2.048685709E0
1.108671983E1,-1.518250156E0,1.123657093E0,4.979629914E-1,1.953370405E0
1.109666683E1,-1.391415716E0,9.708038592E-1,6.444543815E-1,1.814888227E0
1.110661383E1,-1.315406298E0,7.670348257E-1,6.660177433E-1,1.661991512E0
1.111655983E1,-1.075506295E0,6.613510805E-1,6.920904049E-1,1.439822271E0
1.112650683E1,-9.765690677E-1,5.704490966E-1,6.887833659E-1,1.324206117E0
1.113645383E1,-1.059376459E0,4.479674703E-1,6.330383507E-1,1.312894089E0
1.114639983E1,-1.072852244E0,3.920622414E-1,5.187241153E-1,1.254511637E0
1.115634683E1,-1.020577625E0,4.304041886E-1,3.712374560E-1,1.168179653E0
1.116629283E1,-9.293841570E-1,3.737470078E-1,1.740857164E-1,1.016733777E0
1.117623983E1,-8.097575068E-1,2.302773857E-1,-4.434060574E-2,8.430308319E-1
1.118618683E1,-5.524116057E-1,8.034308195E-2,-2.004694498E-1,5.931286481E-1
1.119613283E1,-2.751495034E-1,-2.041613817E-2,-3.244830465E-1,4.259264201E-1
1.120607983E1,-2.170398742E-1,-1.568106294E-1,-3.770237875E-1,4.624314185E-1
1.121602683E1,-4.292288983E-1,-2.502000189E-1,-3.882527804E-1,6.305376421E-1
1.122597283E1,-6.378730479E-1,-3.218617398E-1,-3.214283149E-1,7.834495302E-1
1.123591983E1,-6.661513522E-1,-4.825268537E-1,-2.634790456E-1,8.637192808E-1
1.124586683E1,-6.687100938E-1,-6.874167985E-1,-2.431985629E-1,9.893738350E-1
1.125581283E1,-6.452180278E-1,-9.319415098E-1,-1.890416515E-1,1.149155354E0
1.126575983E1,-5.434966484E-1,-1.261454916E0,-4.453466021E-2,1.374278155E0
1.127570683E1,-2.886855518E-1,-1.579599581E0,1.133156041E-1,1.609756071E0
1.128565283E1,1.695160443E-1,-1.877718701E0,1.669941401E-1,1.892736182E0
1.129559983E1,6.875562546E-1,-2.236783351E0,1.132091117E-1,2.342808072E0
1.130554583E1,1.118553643E0,-2.536841408E0,1.410395193E-1,2.776079741E0
1.131549283E1,1.699513987E0,-2.737270512E0,5.860086836E-2,3.222488434E0
1.132543983E1,1.957608916E0,-3.079078274E0,3.625273705E-4,3.648692343E0
1.133538583E1,2.286215127E0,-3.148282410E0,-4.668541230E-2,3.891097694E0
1.134533283E1,2.653582823E0,-3.235314122E0,-1.980113534E-1,4.189029453E0
1.135527983E1,2.677691185E0,-3.443622934E0,-2.825234270E-1,4.371314274E0
1.136522583E1,2.853103269E0,-3.528770673E0,-4.188419044E-1,4.557175580E0
1.137517283E1,2.929721675E0,-3.625443274E0,-5.083416530E-1,4.688871854E0
1.138511983E1,2.909842311E0,-3.740971391E0,-5.974777047E-1,4.776926714E0
1.139506583E1,2.953844363E0,-3.870258007E0,-6.202201577E-1,4.908030828E0
1.140501283E1,3.026879595E0,-3.945882386E0,-6.747534104E-1,5.018693062E0
1.141495983E1,3.131409100E0,-3.963501216E0,-6.582770531E-1,5.093956568E0
1.142490583E1,3.164690866E0,-3.955827330E0,-6.366039097E-1,5.105791093E0
1.143485283E1,3.147510870E0,-3.920011965E0,-6.435679436E-1,5.068283554E0
1.144479983E1,3.183870319E0,-3.736200648E0,-6.315390515E-1,4.949249141E0
1.145474583E1,3.076708105E0,-3.498485604E0,-6.353444195E-1,4.702041771E0
1.146469283E1,2.920421971E0,-3.318869664E0,-6.297169860E-1,4.465456731E0
1.147463883E1,2.656897025E0,-3.133043396E0,-5.664045775E-1,4.146791153E0
1.148458583E1,2.181250005E0,-3.022735088E0,-4.973138773E-1,3.760598369E0
1.149453283E1,1.704171294E0,-2.957464374E0,-3.413556989E-1,3.430352611E0
1.150447883E1,1.400687353E0,-2.882797769E0,-1.255185239E-1,3.207522867E0
1.151442583E1,1.362913755E0,-2.826711277E0,9.238483787E-2,3.139484911E0
1.152437283E1,1.567548469E0,-2.745943102E0,2.751864870E-1,3.173820935E0
1.153431883E1,1.556548395E0,-2.659455766E0,3.212859352E-1,3.098188588E0
1.154426583E1,1.395547066E0,-2.536574775E0,2.893972676E-1,2.909555633E0
1.155421283E1,1.177801141E0,-2.457871252E0,3.036823077E-1,2.742365687E0
1.156415883E1,9.951338312E-1,-2.474082073E0,3.933293331E-1,2.695566992E0
1.157410583E1,8.944767912E-1,-2.392678306E0,5.854292976E-1,2.620634593E0
1.158405283E1,6.794436083E-1,-2.113933350E0,6.925209061E-1,2.325928423E0
1.159399883E1,3.003053945E-1,-1.876387290E0,6.325377560E-1,2.002777223E0
1.160394583E1,-1.878013109E-1,-1.579558650E0,3.757714601E-1,1.634465984E0
1.161389283E1,-4.650135657E-1,-1.146699800E0,1.461920857E-2,1.237486069E0
1.162383958E1,-6.049798286E-1,-7.075733203E-1,-4.041908285E-1,1.014904342E0
1.163378658E1,-8.734288613E-1,-2.756026626E-1,-8.054760294E-1,1.219682925E0
1.164373258E1,-1.220512420E0,1.313384038E-1,-1.058613543E0,1.620975933E0
1.165367958E1,-1.437285076E0,6.478118527E-1,-1.088632271E0,1.915872858E0
1.166362658E1,-1.694600572E0,1.187609260E0,-9.265030146E-1,2.267265906E0
1.167357258E1,-2.071202775E0,1.686823483E0,-5.651100039E-1,2.730312017E0
1.168351958E1,-2.463731332E0,2.296073533E0,-7.808481418E-2,3.368682677E0
1.169346658E1,-2.816041862E0,2.970765620E0,4.198743765E-1,4.114831058E0
1.170341258E1,-3.133398615E0,3.542296452E0,8.902924506E-1,4.812345757E0
1.171335958E1,-3.567065842E0,4.043282381E0,1.349811022E0,5.558244411E0
1.172330658E1,-4.305844583E0,5.086067219E0,1.966019844E0,6.947921369E0
1.173325258E1,-7.082066907E0,8.764593855E0,3.195872898E0,1.171270168E1
1.174319958E1,-9.051988598E0,1.143179192E1,7.240153983E-2,1.458182451E1
1.175314658E1,-9.964015660E0,9.670296569E0,-1.183575851E0,1.393546180E1
1.176309258E1,-7.971338360E0,6.539565162E0,-1.085466443E0,1.036756409E1
1.177303958E1,-4.238222996E0,5.360564758E0,-2.438228993E-1,6.837955710E0
1.178298658E1,-2.334976813E0,5.046369302E0,1.280158989E0,5.705853739E0
1.179293258E1,-2.586743593E0,4.226399049E0,1.486351694E0,5.173290316E0
1.180287958E1,-3.249934792E0,3.349019077E0,5.523747683E-1,4.699268328E0
1.181282558E1,-3.382040643E0,2.158741148E0,-5.139340031E-1,4.045057529E0
1.182277258E1,-2.847081222E0,1.414990520E0,-5.097859883E-1,3.219930342E0
1.183271958E1,-1.976657683E0,9.327969575E-1,-2.355830030E-1,2.198359641E0
1.184266558E1,-1.533060714E0,5.274866796E-1,-3.522748625E-1,1.659100639E0
1.185261258E1,-1.326603716E0,2.551099259E-1,-5.006678402E-1,1.440703571E0
1.186255958E1,-1.108542333E0,6.871647835E-3,-3.668133795E-1,1.167675203E0
1.187250558E1,-8.443652759E-1,-2.751161742E-1,-2.290672313E-1,9.171223610E-1
1.188245258E1,-5.186493440E-1,-5.424368405E-1,-1.761416705E-1,7.708831014E-1
1.189239958E1,-1.932895075E-1,-7.075125092E-1,-1.824426301E-1,7.557910410E-1
1.190234558E1,-5.053470746E-2,-8.698686379E-1,-2.116237445E-1,8.966659429E-1
1.191229258E1,-1.017608482E-1,-9.893617523E-1,-2.086567211E-1,1.016233032E0
1.192223958E1,-1.273432937E-1,-9.383693540E-1,-1.438157773E-1,9.578289705E-1
1.193218558E1,-1.328708860E-1,-8.501225907E-1,-6.989052616E-2,8.632773466E-1
1.194213258E1,-1.804758460E-1,-7.788292444E-1,-9.691306785E-2,8.053189838E-1
1.195207958E1,-1.571236747E-1,-6.293633026E-1,-1.750000747E-1,6.718712986E-1
1.196202558E1,-1.199562138E-1,-5.095053220E-1,-1.546038902E-1,5.457907376E-1
1.197197258E1,-3.357062653E-1,-4.070825690E-1,-1.567639247E-1,5.504451314E-1
1.198191858E1,-5.957249288E-1,-3.590780979E-1,-1.884570030E-1,7.206533932E-1
1.199186558E1,-7.907145873E-1,-3.800327647E-1,-2.078392804E-1,9.015828455E-1
1.200181258E1,-7.965217495E-1,-4.389598346E-1,-1.635863098E-1,9.240633715E-1
1.201175858E1,-5.392965934E-1,-5.870347238E-1,-1.247350701E-1,8.068515478E-1
1.202170558E1,-1.974727517E-1,-7.907370991E-1,8.078988232E-2,8.190162713E-1
1.203165258E1,3.494886643E-1,-8.312442702E-1,2.646555785E-1,9.397616392E-1
1.204159858E1,5.953801623E-1,-1.060805372E0,3.734336702E-1,1.272492939E0
1.205154558E1,7.079188907E-1,-1.221815472E0,4.833097959E-1,1.492504794E0
1.206149258E1,7.940907696E-1,-1.189911894E0,5.323480546E-1,1.526389503E0
1.207143858E1,7.921114871E-1,-1.399353311E0,3.748498658E-1,1.651103485E0
1.208138558E1,8.042573234E-1,-1.583440032E0,1.526264349E-1,1.782528262E0
1.209133258E1,7.905395363E-1,-1.697528565E0,-6.627709307E-2,1.873752556E0
1.210127858E1,8.723238107E-1,-1.874482852E0,-2.264731141E-1,2.079885782E0
1.211122558E1,1.074998976E0,-2.086394134E0,-3.907765118E-1,2.379363268E0
1.212117258E1,1.352258082E0,-2.242307215E0,-4.080665823E-1,2.650106017E0
1.213111858E1,1.799575050E0,-2.335423540E0,-5.068716630E-1,2.991586929E0
1.214106558E1,1.993530993E0,-2.556912560E0,-4.495000986E-1,3.273227460E0
1.215101158E1,2.243212364E0,-2.679701750E0,-4.619944290E-1,3.525087522E0
1.216095858E1,2.454795032E0,-2.843050736E0,-4.666592646E-1,3.785066315E0
1.217090558E1,2.547533334E0,-3.009461324E0,-4.591351406E-1,3.969582929E0
1.218085158E1,2.642886803E0,-3.143133352E0,-5.068517824E-1,4.137757442E0
1.219079858E1,2.629354008E0,-3.310837929E0,-4.749318322E-1,4.254492982E0
1.220074558E1,2.708918533E0,-3.344238979E0,-4.180080914E-1,4.323991759E0
1.221069158E1,2.722521495E0,-3.385380573E0,-3.576800287E-1,4.358997582E0
1.222063858E1,2.703175982E0,-3.365286031E0,-3.880539751E-1,4.333923898E0
1.223058558E1,2.735582713E0,-3.234659818E0,-3.821786928E-1,4.253527651E0
1.224053158E1,2.713869955E0,-3.068570243E0,-4.080151268E-1,4.116757196E0
1.225047858E1,2.472413278E0,-2.850392500E0,-4.569691857E-1,3.800840125E0
1.226042558E1,2.021206158E0,-2.660933942E0,-4.931798228E-1,3.377731504E0
1.227037158E1,1.629507905E0,-2.457381256E0,-4.846021036E-1,2.988119450E0
1.228031858E1,1.390024956E0,-2.226030906E0,-4.513442008E-1,2.662910918E0
1.229026558E1,1.184524269E0,-2.110128567E0,-4.400789186E-1,2.459554790E0
1.230021158E1,1.108599636E0,-2.072522199E0,-3.969136032E-1,2.383669823E0
1.231015858E1,1.210121040E0,-2.033772701E0,-2.690829806E-1,2.381812331E0
1.232010558E1,1.287334400E0,-2.011556205E0,-3.312560957E-2,2.388448352E0
1.233005158E1,1.123305383E0,-2.076657350E0,2.313953733E-1,2.372312069E0
1.233999858E1,1.006665418E0,-2.156095868E0,5.168097003E-1,2.434998341E0
1.234994458E1,1.047651476E0,-2.114343824E0,7.578728235E-1,2.478385490E0
1.235989158E1,1.094716592E0,-2.075569768E0,8.475340283E-1,2.494936514E0
1.236983858E1,9.422226691E-1,-2.142075999E0,7.353271294E-1,2.452953145E0
1.237978458E1,6.311084041E-1,-2.186306677E0,4.659517515E-1,2.322788354E0
1.238973158E1,4.153563061E-1,-2.132308810E0,3.442956790E-1,2.199500224E0
1.239967858E1,4.062541647E-1,-1.857383839E0,3.065554103E-1,1.925848746E0
1.240962458E1,3.226198313E-1,-1.599935027E0,2.457982349E-1,1.650543068E0
1.241957158E1,-6.654350683E-2,-1.463538197E0,2.162453107E-1,1.480923404E0
1.242951858E1,-1.893014140E-1,-8.242480767E-1,2.328712837E-1,8.771823938E-1
1.243946458E1,-5.081724492E-1,-3.575888121E-1,2.369702549E-1,6.650292462E-1
1.244941158E1,-9.439589998E-1,1.270371920E-1,1.259958029E-1,9.607663524E-1
1.245935858E1,-1.288370527E0,6.201077449E-1,-6.082039833E-2,1.431129397E0
1.246930458E1,-1.526087910E0,1.001508173E0,-2.521997666E-1,1.842706610E0
1.247925158E1,-1.518888379E0,1.544385309E0,-3.033768638E-1,2.187278083E0
1.248919858E1,-1.653936695E0,2.132392425E0,-1.204748619E-1,2.701317871E0
1.249914458E1,-2.005146780E0,2.661999890E0,1.495507264E-1,3.336048927E0
1.250909158E1,-2.243944436E0,3.183074512E0,3.643680739E-1,3.911523242E0
1.251903858E1,-2.321036758E0,3.544055879E0,5.646761405E-1,4.273921250E0
1.252898458E1,-2.426767281E0,3.773493605E0,6.725139999E-1,4.536598781E0
1.253893158E1,-2.630597126E0,3.972899446E0,7.152594852E-1,4.818253561E0
1.254887758E1,-3.163385768E0,4.533029961E0,9.475355224E-1,5.608314694E0
1.255882458E1,-4.854127470E0,6.605091400E0,1.734550796E0,8.378451668E0
1.256877158E1,-6.095958545E0,7.732679576E0,-1.878545936E-1,9.848367040E0
1.257871758E1,-6.594030222E0,6.394764129E0,-1.121093674E0,9.253707033E0
1.258866458E1,-5.366992017E0,4.551525874E0,-9.856031621E-1,7.105800777E0
1.259861158E1,-3.261228105E0,3.731280801E0,-3.982515192E-1,4.971586209E0
1.260855758E1,-2.404206969E0,3.254569003E0,2.772468265E-1,4.055773212E0
1.261850387E1,-2.596892605E0,2.727433156E0,1.301484223E-1,3.768246467E0
1.262845087E1,-2.738295237E0,2.538565167E0,-3.946191557E-1,3.754770058E0
1.263839688E1,-2.737378978E0,2.027841285E0,-8.221196171E-1,3.504463527E0
1.264834387E1,-2.515667763E0,1.740580444E0,-7.834111226E-1,3.157837482E0
1.265829087E1,-2.185863604E0,1.644564486E0,-5.602801307E-1,2.792222389E0
1.266823687E1,-2.090293788E0,1.560701964E0,-4.711358198E-1,2.650865463E0
1.267818387E1,-2.043485511E0,1.486462206E0,-2.676784428E-1,2.541073528E0
1.268813088E1,-2.005495274E0,1.439005035E0,1.944857016E-3,2.468349766E0
1.269807687E1,-1.966226397E0,1.345066007E0,2.523097674E-1,2.395602017E0
1.270802387E1,-1.848286595E0,1.232421736E0,3.560228547E-1,2.249839760E0
1.271797087E1,-1.741881011E0,1.127791075E0,4.299877938E-1,2.119186558E0
1.272791687E1,-1.648271036E0,1.081610350E0,5.001556242E-1,2.033920845E0
1.273786387E1,-1.466263000E0,9.764534390E-1,4.015399933E-1,1.806826740E0
1.274780987E1,-1.430867026E0,8.894538867E-1,2.956797353E-1,1.710536515E0
1.275775687E1,-1.593417136E0,7.587241781E-1,2.046221423E-1,1.776657190E0
1.276770387E1,-1.581145146E0,6.506717259E-1,9.130324915E-2,1.712229526E0
1.277764988E1,-1.376176410E0,5.624694014E-1,-2.815317392E-2,1.486951896E0
1.278759687E1,-1.206872839E0,3.975334811E-1,-1.252344223E-1,1.276815797E0
1.279754387E1,-1.017591817E0,1.817665458E-1,-2.689438534E-1,1.068111876E0
1.280748987E1,-8.689392230E-1,-7.982735753E-2,-3.897941065E-1,9.557024776E-1
1.281743687E1,-8.307507652E-1,-3.020186287E-1,-4.189681677E-1,9.782108216E-1
1.282738388E1,-7.449577859E-1,-5.460352170E-1,-3.369283334E-1,9.831771269E-1
1.283732987E1,-5.735089445E-1,-8.274272078E-1,-2.456777458E-1,1.036294287E0
1.284727687E1,-2.863369811E-1,-1.108280085E0,-1.634764552E-1,1.156286368E0
1.285722387E1,-5.746234238E-2,-1.407918897E0,-7.618805051E-2,1.411149234E0
1.286716987E1,3.973738521E-2,-1.765531683E0,6.322243452E-2,1.767110144E0
1.287711687E1,2.798418939E-1,-2.092587504E0,1.729477751E-1,2.118288196E0
1.288706387E1,6.746026985E-1,-2.352248903E0,1.916213699E-1,2.454563597E0
1.289700987E1,1.010012875E0,-2.674550353E0,1.760690919E-1,2.864322944E0
1.290695687E1,1.353731288E0,-2.911767215E0,3.121617206E-1,3.226208557E0
1.291690387E1,1.795547487E0,-3.005198704E0,3.250232562E-1,3.515800072E0
1.292684987E1,2.008948055E0,-3.130499858E0,3.385128923E-1,3.735035826E0
1.293679688E1,2.204939122E0,-3.156666148E0,2.379115105E-1,3.857836127E0
1.294674287E1,2.330495653E0,-3.268961924E0,1.286844623E-1,4.016700355E0
1.295668987E1,2.427822411E0,-3.360718771E0,1.196932353E-2,4.145949298E0
1.296663687E1,2.561067592E0,-3.333832104E0,-4.597190581E-2,4.204237996E0
1.297658287E1,2.582312865E0,-3.283992777E0,-1.460073137E-1,4.180223251E0
1.298652987E1,2.532925528E0,-3.243197923E0,-2.763264748E-1,4.124366717E0
1.299647687E1,2.465275874E0,-3.232103416E0,-4.382897437E-1,4.088541980E0
1.300642287E1,2.297765425E0,-3.231368421E0,-5.533886024E-1,4.003461847E0
1.301636987E1,2.239310663E0,-3.266116084E0,-6.289217647E-1,4.009684415E0
1.302631687E1,2.411081102E0,-3.293060054E0,-6.209390728E-1,4.128331616E0
1.303626287E1,2.703782923E0,-3.268891173E0,-5.696685664E-1,4.280258622E0
1.304620987E1,2.961723486E0,-3.297189943E0,-4.976916075E-1,4.459928751E0
1.305615687E1,3.177628708E0,-3.330855871E0,-4.262059609E-1,4.623156559E0
1.306610287E1,3.289323099E0,-3.249819894E0,-3.812011115E-1,4.639643314E0
1.307604988E1,3.258841563E0,-3.117451211E0,-3.605252838E-1,4.524215829E0
1.308599687E1,2.969885907E0,-3.019354228E0,-4.059114448E-1,4.254584158E0
1.309594287E1,2.432634962E0,-2.979979078E0,-4.473528548E-1,3.872739694E0
1.310588987E1,1.929180923E0,-2.856580024E0,-4.644162726E-1,3.478141881E0
1.311583687E1,1.640315899E0,-2.716823968E0,-4.776752727E-1,3.209352332E0
1.312578287E1,1.515042519E0,-2.704065928E0,-6.004295254E-1,3.157188939E0
1.313572987E1,1.550608501E0,-2.711531653E0,-6.175864255E-1,3.184054589E0
1.314567687E1,1.418434822E0,-2.729641650E0,-4.726794847E-1,3.112286423E0
1.315562287E1,1.332423742E0,-2.741394553E0,-2.829421607E-1,3.061152298E0
1.316556987E1,1.333057872E0,-2.689740250E0,-1.469088813E-1,3.005549554E0
1.317551687E1,1.346772224E0,-2.614300643E0,-5.164151229E-2,2.941263355E0
1.318546288E1,1.354089138E0,-2.565482240E0,3.805251002E-2,2.901155719E0
1.319540987E1,1.221096849E0,-2.457237999E0,-4.818566166E-2,2.744342900E0
1.320535587E1,8.423121724E-1,-2.290404072E0,-1.406828392E-1,2.444428823E0
1.321530288E1,3.880007654E-1,-2.076165015E0,-2.685158372E-1,2.129109325E0
1.322524987E1,-5.669146009E-2,-1.800564106E0,-4.313795773E-1,1.852385857E0
1.323519587E1,-3.078599972E-1,-1.352453379E0,-6.073046815E-1,1.514175319E0
1.324514287E1,-4.618826010E-1,-9.019879782E-1,-8.354547771E-1,1.313355449E0
1.325508987E1,-7.021086587E-1,-7.206120265E-1,-1.028132227E0,1.438504132E0
1.326503587E1,-8.746582384E-1,-4.791167575E-1,-1.099522053E0,1.484428727E0
1.327498287E1,-7.408922169E-1,6.488479793E-2,-1.047618585E0,1.284770802E0
1.328492987E1,-8.332251607E-1,3.817974544E-1,-7.302950887E-1,1.171906302E0
1.329487587E1,-1.182145183E0,5.456241578E-1,-2.225051936E-1,1.320863928E0
1.330482287E1,-1.316578518E0,9.322250998E-1,2.995259972E-1,1.640773737E0
1.331476987E1,-1.423603322E0,1.325545077E0,7.590340805E-1,2.088025121E0
1.332471588E1,-1.529665821E0,1.636741496E0,1.137708098E0,2.512604220E0
1.333466287E1,-1.570253976E0,1.921348870E0,1.450937448E0,2.874456211E0
1.334460987E1,-1.741425952E0,2.312726988E0,1.679482888E0,3.346928926E0
1.335455587E1,-2.192773697E0,2.801654204E0,1.903352895E0,4.034882279E0
1.336450287E1,-2.586272600E0,3.178036551E0,2.122321765E0,4.614430838E0
1.337444988E1,-2.968722896E0,3.549994311E0,2.257476647E0,5.148978156E0
1.338439587E1,-4.277511607E0,5.280698224E0,2.630210917E0,7.287035663E0
1.339434287E1,-6.722909871E0,9.110004086E0,1.557506461E0,1.142871462E1
1.340428987E1,-8.310037158E0,9.785177400E0,-4.825578074E-1,1.284676132E1
1.341423587E1,-8.791010406E0,7.537183768E0,-1.053270650E0,1.162756992E1
1.342418287E1,-6.098390987E0,4.572096963E0,-1.271310983E0,7.727268268E0
1.343412888E1,-2.827447149E0,3.080865183E0,-5.541987341E-2,4.182016143E0
1.344407587E1,-1.101914222E0,2.837470738E0,1.243599858E0,3.288159934E0
1.345402287E1,-1.450087262E0,1.915377109E0,1.268399069E0,2.716663162E0
1.346396888E1,-2.185982156E0,1.529659097E0,9.056377371E-1,2.817544081E0
1.347391587E1,-2.830888820E0,1.420612618E0,4.508098749E-1,3.199265738E0
1.348386288E1,-3.432737465E0,9.056103283E-1,3.174243609E-1,3.564347737E0
1.349380887E1,-3.416640957E0,1.051042861E0,4.164130441E-1,3.598822911E0
1.350375587E1,-3.075010951E0,1.346852916E0,4.941224670E-1,3.393208236E0
1.351370288E1,-2.652627680E0,1.503853580E0,3.136868206E-1,3.065356198E0
1.352364887E1,-2.197567683E0,1.622000665E0,2.376432694E-2,2.731438197E0
1.353359587E1,-1.799241612E0,1.604717465E0,-2.039005228E-1,2.419496630E0
1.354354287E1,-1.461256321E0,1.486347016E0,-4.558348989E-1,2.133607964E0
1.355348887E1,-1.027700630E0,1.347201410E0,-7.265878078E-1,1.843651286E0
1.356343587E1,-7.239507866E-1,1.147564019E0,-8.159485388E-1,1.583281383E0
1.357338287E1,-5.689886083E-1,8.914729303E-1,-7.310363694E-1,1.285646217E0
1.358332887E1,-5.642196192E-1,6.816561216E-1,-5.847437116E-1,1.060624370E0
1.359327587E1,-6.312841129E-1,4.288722181E-1,-4.069624818E-1,8.649100949E-1
1.360322287E1,-6.341957340E-1,1.799831450E-1,-2.370250726E-1,7.005562408E-1
1.361316887E1,-6.947660907E-1,7.883683920E-2,8.445791379E-3,6.992756963E-1
1.362311600E1,-9.977818890E-1,-1.028279650E-1,2.750612835E-1,1.040096629E0
1.363306300E1,-1.091302037E0,-3.399208653E-1,3.170945779E-1,1.186185189E0
1.364300900E1,-9.090829897E-1,-4.776672328E-1,2.727574074E-1,1.062541515E0
1.365295600E1,-6.628682137E-1,-6.874916428E-1,2.920227405E-1,9.986572529E-1
1.366290300E1,-4.960709420E-1,-7.792718786E-1,3.414190681E-1,9.848441605E-1
1.367284900E1,-5.701181442E-1,-8.297888982E-1,3.134516895E-1,1.054436473E0
1.368279600E1,-4.845002524E-1,-9.376138937E-1,2.778574220E-1,1.091359270E0
1.369274200E1,-3.083867947E-1,-9.547403884E-1,3.273412386E-1,1.055359612E0
1.370268900E1,-2.444738223E-1,-1.088870838E0,3.591500918E-1,1.172346339E0
1.371263600E1,1.572842995E-2,-1.207074056E0,2.999774388E-1,1.243889716E0
1.372258200E1,2.840893114E-1,-1.190816458E0,2.366017342E-1,1.246888509E0
1.373252900E1,3.522070348E-1,-1.341234911E0,2.558824161E-1,1.410119390E0
1.374247600E1,2.524912138E-1,-1.502257290E0,1.129425517E-1,1.527509345E0
1.375242200E1,3.762220977E-1,-1.542998934E0,2.965481199E-2,1.588479835E0
1.376236900E1,5.654932524E-1,-1.691324669E0,1.174128212E-2,1.783395529E0
1.377231600E1,8.838218486E-1,-1.871556906E0,-5.190573335E-2,2.070401052E0
1.378226200E1,1.184173436E0,-2.086856064E0,-1.697785842E-1,2.405422983E0
1.379220900E1,1.422267087E0,-2.266400083E0,-7.545707546E-2,2.676771707E0
1.380215600E1,1.856142183E0,-2.342053113E0,-1.382994410E-1,2.991588762E0
1.381210200E1,1.988994870E0,-2.654421898E0,-1.680475160E-2,3.316977330E0
1.382204900E1,2.304745831E0,-2.746999694E0,4.555339135E-2,3.586075261E0
1.383199600E1,2.474731406E0,-2.937042389E0,8.990912676E-2,3.841691968E0
1.384194200E1,2.610799915E0,-3.036717535E0,1.419037378E-1,4.007251709E0
1.385188900E1,2.787821153E0,-3.123825261E0,1.581507381E-1,4.189897696E0
1.386183600E1,2.792975766E0,-3.263299481E0,1.819476633E-1,4.299179234E0
1.387178200E1,2.693175489E0,-3.350522397E0,6.903325126E-2,4.299297633E0
1.388172900E1,2.550979683E0,-3.428130151E0,-8.837013960E-2,4.274035910E0
1.389167600E1,2.608171299E0,-3.412258469E0,-2.116925955E-1,4.300102224E0
1.390162200E1,2.803836384E0,-3.429018928E0,-3.515005450E-1,4.443334549E0
1.391156900E1,2.983798479E0,-3.504770776E0,-4.745904279E-1,4.627278642E0
1.392151600E1,3.097120442E0,-3.468410450E0,-5.446797594E-1,4.681741356E0
1.393146200E1,3.228778397E0,-3.339509751E0,-5.556151490E-1,4.678252185E0
1.394140900E1,3.208929438E0,-3.175729240E0,-5.263298810E-1,4.545273093E0
1.395135500E1,2.816857257E0,-2.949638461E0,-5.031423819E-1,4.109526020E0
1.396130200E1,2.197247694E0,-2.700282195E0,-4.931985339E-1,3.516058327E0
1.397124900E1,1.541596480E0,-2.445157067E0,-5.139772725E-1,2.935896017E0
1.398119500E1,1.060599258E0,-2.189404532E0,-5.213459337E-1,2.488004134E0
1.399114200E1,7.882897469E-1,-2.037387450E0,-6.372390635E-1,2.275614636E0
1.400108900E1,8.631332302E-1,-1.896794073E0,-7.126424177E-1,2.202427285E0
1.401103500E1,1.025459538E0,-1.883443125E0,-7.071423805E-1,2.258091145E0
1.402098200E1,1.056570234E0,-1.954889669E0,-6.031250187E-1,2.302540784E0
1.403092900E1,1.186584536E0,-1.949310256E0,-4.122906840E-1,2.319003437E0
1.404087500E1,1.225983659E0,-1.955133498E0,-2.362368679E-1,2.319782486E0
1.405082200E1,1.089992699E0,-1.871888443E0,-8.652336963E-2,2.167841488E0
1.406076900E1,7.128872699E-1,-1.878730854E0,7.320713997E-3,2.009450541E0
1.407071500E1,6.045676730E-1,-1.563358939E0,-2.437463008E-2,1.676361347E0
1.408066200E1,4.032436527E-1,-1.426952169E0,-7.603010260E-2,1.484782311E0
1.409060900E1,1.014567199E-1,-1.254004394E0,-5.919618800E-2,1.259493817E0
1.410055500E1,-2.553177944E-1,-1.088123564E0,-1.789014101E-1,1.131903609E0
1.411050200E1,-5.135225053E-1,-9.672236091E-1,-3.340103535E-1,1.144897283E0
1.412044900E1,-5.498514023E-1,-7.087293148E-1,-3.838933888E-1,9.757089424E-1
1.413039500E1,-4.188851738E-1,-3.722390109E-1,-3.587779165E-1,6.653933149E-1
1.414034200E1,-4.386540252E-1,-2.129158330E-1,-2.171831310E-1,5.337780608E-1
1.415028900E1,-3.002542314E-1,2.885343647E-1,-2.178906441E-2,4.169885447E-1
1.416023500E1,-6.545462371E-1,5.013373464E-1,1.408454648E-1,8.364253442E-1
1.417018200E1,-1.186349770E0,7.276976824E-1,2.603484464E-1,1.415892301E0
1.418012900E1,-1.647213567E0,1.037693667E0,5.160119574E-1,2.014047919E0
1.419007500E1,-2.006395160E0,1.385951493E0,8.594283613E-1,2.585556069E0
1.420002200E1,-2.043526003E0,1.784787149E0,1.132060784E0,2.939902262E0
1.420996800E1,-1.802015531E0,2.135731185E0,1.310040600E0,3.086229746E0
1.421991500E1,-1.645101552E0,2.472859420E0,1.551018391E0,3.350679167E0
1.422986200E1,-1.647505343E0,2.837445011E0,1.681597241E0,3.686887213E0
1.423980800E1,-1.977464014E0,3.223888662E0,1.674273019E0,4.136062400E0
1.424975500E1,-2.660976627E0,3.560576602E0,1.423818061E0,4.667521850E0
1.425970200E1,-3.231537405E0,3.975398546E0,9.984049098E-1,5.219524879E0
1.426964800E1,-3.535099407E0,4.370716517E0,3.788272150E-1,5.634145964E0
1.427959500E1,-4.405240817E0,5.202298172E0,-4.197727811E-1,6.829806887E0
1.428954200E1,-5.697749126E0,6.018183560E0,-1.420084029E0,8.408300489E0
1.429948800E1,-5.862759306E0,5.541982225E0,-1.497771014E0,8.205414777E0
1.430943500E1,-5.233153344E0,4.121314058E0,-1.792114441E0,6.898028534E0
1.431938200E1,-3.785067291E0,3.835494556E0,-1.408144015E0,5.569616006E0
1.432932800E1,-2.918667221E0,3.867870004E0,-8.118544646E-1,4.913058558E0
1.433927500E1,-2.890057965E0,3.132632337E0,-1.007814249E0,4.379670074E0
1.434922200E1,-2.485610151E0,2.464220744E0,-1.575300708E0,3.838256638E0
1.435916800E1,-2.033977354E0,1.893009170E0,-1.499095116E0,3.157187635E0
1.436911500E1,-1.657801997E0,1.457135496E0,-1.137077622E0,2.482840477E0
1.437906200E1,-1.408777853E0,1.168326897E0,-9.496369386E-1,2.061905210E0
1.438900800E1,-1.384814502E0,8.924763125E-1,-8.772109866E-1,1.866473758E0
1.439895500E1,-1.476808453E0,6.111977577E-1,-6.578748377E-1,1.728388038E0
1.440890200E1,-1.551841386E0,4.465658927E-1,-3.169355337E-1,1.645624780E0
1.441884800E1,-1.527594299E0,3.719027960E-1,-5.835448131E-3,1.572224565E0
1.442879500E1,-1.385312684E0,2.285793543E-1,1.996719626E-1,1.418170881E0
1.443874200E1,-1.269761324E0,1.793966693E-1,3.535905591E-1,1.330226774E0
1.444868800E1,-1.278972005E0,1.792382097E-1,5.094866109E-1,1.388334373E0
1.445863500E1,-1.386535776E0,2.811440688E-1,6.739968538E-1,1.567097701E0
1.446858200E1,-1.439813412E0,3.253536969E-1,6.818157506E-1,1.625973680E0
1.447852800E1,-1.265301068E0,2.996160078E-1,5.674137338E-1,1.418701833E0
1.448847500E1,-1.023012478E0,2.943464971E-1,4.358058465E-1,1.150270024E0
1.449842100E1,-8.078203243E-1,2.264860511E-1,3.196801436E-1,8.978112284E-1
1.450836800E1,-5.628231579E-1,2.259399211E-1,1.959846354E-1,6.373607553E-1
1.451831500E1,-4.610743696E-1,1.647184038E-1,1.441339755E-1,5.103884107E-1
1.452826100E1,-6.841781719E-1,6.420593619E-2,8.579392947E-2,6.925191488E-1
1.453820800E1,-8.123588600E-1,1.328838229E-2,4.561069407E-2,8.137467874E-1
1.454815500E1,-7.537008351E-1,-8.187271357E-2,9.796191216E-2,7.644374574E-1
1.455810100E1,-6.764249832E-1,-2.817293751E-1,1.526403221E-1,7.484793028E-1
1.456804800E1,-5.106192166E-1,-5.229422235E-1,2.077305222E-1,7.598371690E-1
1.457799500E1,-2.693835640E-1,-7.132345945E-1,2.507075572E-1,8.025742150E-1
1.458794100E1,-4.795275975E-2,-8.997748071E-1,3.002135202E-1,9.497485606E-1
1.459788800E1,8.814441880E-2,-1.083699560E0,3.796900447E-1,1.151667793E0
1.460783500E1,1.450141641E-1,-1.325412930E0,4.171520591E-1,1.397055612E0
1.461778087E1,2.640336540E-1,-1.466489287E0,4.663201626E-1,1.561332474E0
1.462772787E1,3.847245340E-1,-1.605867028E0,4.385424165E-1,1.708549481E0
1.463767487E1,5.158211554E-1,-1.790651321E0,3.924172405E-1,1.904335819E0
1.464762087E1,7.852556267E-1,-1.927277947E0,4.459215661E-1,2.128349766E0
1.465756787E1,9.330236833E-1,-2.098156393E0,3.928873932E-1,2.329625280E0
1.466751487E1,9.804201901E-1,-2.269851694E0,3.079061902E-1,2.491637350E0
1.467746087E1,1.183037541E0,-2.396164416E0,3.161718873E-1,2.690937828E0
1.468740787E1,1.575387247E0,-2.500522597E0,3.002580321E-1,2.970625039E0
1.469735487E1,1.914571070E0,-2.620557164E0,2.621938276E-1,3.256017174E0
1.470730087E1,2.324465565E0,-2.636694894E0,1.114630600E-1,3.516777523E0
1.471724787E1,2.463126437E0,-2.873929882E0,6.571802616E-2,3.785602155E0
1.472719487E1,2.633488574E0,-2.935560704E0,3.156670533E-2,3.943827478E0
1.473714087E1,2.794439909E0,-3.016244679E0,-7.258806601E-3,4.111773226E0
1.474708788E1,2.910228227E0,-3.145045391E0,-1.542903332E-1,4.287720182E0
1.475703487E1,2.990009684E0,-3.230618223E0,-2.293723098E-1,4.407909218E0
1.476698087E1,3.002584122E0,-3.298365818E0,-3.332456839E-1,4.472782262E0
1.477692787E1,2.911235410E0,-3.341008977E0,-4.352351582E-1,4.452758947E0
1.478687487E1,2.815441646E0,-3.311685775E0,-5.003239509E-1,4.375419796E0
1.479682087E1,2.787993646E0,-3.275469875E0,-5.473613656E-1,4.336036893E0
1.480676787E1,2.841212664E0,-3.208485927E0,-5.774850512E-1,4.324391325E0
1.481671487E1,2.832648540E0,-3.069975328E0,-5.791971159E-1,4.217121716E0
1.482666087E1,2.634132352E0,-2.880709144E0,-5.467098396E-1,3.941577104E0
1.483660787E1,2.229120575E0,-2.653768179E0,-4.646735501E-1,3.496767878E0
1.484655387E1,1.718479139E0,-2.478592615E0,-4.038799759E-1,3.042977314E0
1.485650088E1,1.271806827E0,-2.261480235E0,-3.143393699E-1,2.613540644E0
1.486644787E1,1.006380366E0,-2.095806397E0,-2.886396146E-1,2.342758784E0
1.487639387E1,1.013188571E0,-2.058690611E0,-2.880396172E-1,2.312514850E0
1.488634087E1,1.216939771E0,-2.083502101E0,-2.945874754E-1,2.430782835E0
1.489628787E1,1.345056651E0,-2.140669743E0,-3.006216558E-1,2.545980700E0
1.490623387E1,1.577065982E0,-2.100169004E0,-1.874008497E-1,2.633052608E0
1.491618087E1,1.656383170E0,-2.123287141E0,-1.573916964E-1,2.697540664E0
1.492612787E1,1.703533655E0,-2.172918892E0,-1.393215343E-1,2.764600137E0
1.493607387E1,1.862955944E0,-2.030932708E0,-3.454461917E-3,2.755957991E0
1.494602087E1,1.726738915E0,-1.947989954E0,1.169735491E-1,2.605758039E0
1.495596787E1,1.002042828E0,-1.909573163E0,7.747319542E-2,2.157906761E0
1.496591387E1,1.755100250E-1,-1.622623978E0,-1.713456380E-1,1.641058095E0
1.497586087E1,-2.094753313E-1,-1.336201043E0,-4.847505498E-1,1.436765895E0
1.498580787E1,-3.944596729E-1,-1.033032267E0,-9.042483656E-1,1.428432429E0
1.499575388E1,-4.093786244E-1,-8.097522444E-1,-1.304057583E0,1.588664765E0
1.500570087E1,-3.034222528E-1,-7.182520902E-1,-1.620319591E0,1.798162035E0
1.501564787E1,-2.156144692E-1,-5.041188669E-1,-1.643122416E0,1.732188415E0
1.502559387E1,-4.145713905E-1,-2.085339296E-1,-1.487971373E0,1.558657962E0
1.503554087E1,-7.420903113E-1,2.921502829E-2,-1.038088939E0,1.276393432E0
1.504548788E1,-1.101903843E0,3.128020638E-1,-4.185167261E-1,1.219505416E0
1.505543387E1,-1.177776436E0,5.825715441E-1,1.399824158E-1,1.321416669E0
1.506538087E1,-1.257365958E0,6.864046454E-1,6.597214615E-1,1.577134394E0
1.507532787E1,-1.351569572E0,7.202302033E-1,1.302069676E0,2.010188373E0
1.508527387E1,-1.299159224E0,9.434260261E-1,1.889187430E0,2.479293549E0
1.509522087E1,-1.546335063E0,1.353504124E0,2.362532401E0,3.131243345E0
1.510516787E1,-1.992570881E0,1.754179314E0,2.748483717E0,3.821210086E0
1.511511387E1,-2.192351236E0,2.057608291E0,2.865519247E0,4.153475217E0
1.512506087E1,-2.287374922E0,2.365548395E0,2.642187184E0,4.220077767E0
1.513500787E1,-2.776823418E0,3.067331218E0,1.984661937E0,4.588916222E0
1.514495387E1,-5.434283529E0,6.728365908E0,4.856931210E-1,8.662461721E0
1.515490088E1,-8.008260019E0,1.020850997E1,4.662452817E-2,1.297490185E1
1.516484787E1,-9.754267849E0,9.301192251E0,-1.505341111E0,1.356185719E1
1.517479387E1,-8.872125320E0,6.083208107E0,-2.173169153E0,1.097463862E1
1.518474087E1,-5.950981511E0,3.330265303E0,-1.790437313E0,7.050568325E0
1.519468787E1,-2.928745775E0,3.316002774E0,-4.177952528E-2,4.424383770E0
1.520463387E1,-2.103896312E0,3.152932701E0,9.782589861E-1,3.914633437E0
1.521458087E1,-2.629584388E0,2.637573731E0,8.852053729E-1,3.828197721E0
1.522452687E1,-3.286030532E0,2.837968336E0,6.256847461E-1,4.386746213E0
1.523447387E1,-3.873001813E0,2.208133748E0,5.148246802E-2,4.458547761E0
1.524442087E1,-3.957906600E0,1.782627772E0,-3.639902707E-1,4.356061908E0
1.525436687E1,-3.224126352E0,1.727201430E0,-5.482746276E-1,3.698488959E0
1.526431387E1,-2.441665402E0,1.525261406E0,-6.669216498E-1,2.955154273E0
1.527426087E1,-1.757563975E0,1.378622008E0,-7.415719557E-1,2.353626719E0
1.528420687E1,-1.205456278E0,1.206861218E0,-7.014401027E-1,1.844358169E0
1.529415388E1,-1.076603087E0,9.411222231E-1,-5.761062777E-1,1.541649665E0
1.530410087E1,-9.053200141E-1,8.427983683E-1,-4.624585517E-1,1.320523127E0
1.531404687E1,-8.752773124E-1,7.481062192E-1,-2.738050823E-1,1.183529684E0
1.532399387E1,-1.044044182E0,4.719685364E-1,-8.413332023E-2,1.148852022E0
1.533394087E1,-1.211515747E0,2.987260616E-1,1.200036494E-1,1.253558352E0
1.534388687E1,-1.239746836E0,1.541308504E-1,2.521506500E-1,1.274483615E0
1.535383387E1,-1.184274154E0,6.775753498E-3,2.729083387E-1,1.215331290E0
1.536378087E1,-1.190667500E0,-1.317769450E-1,2.521916536E-1,1.224195609E0
1.537372687E1,-1.212969585E0,-2.374905109E-1,1.854633017E-1,1.249837426E0
1.538367387E1,-1.178335138E0,-3.609240639E-1,1.751521023E-1,1.244756255E0
1.539362087E1,-1.149306270E0,-5.426882708E-1,1.738119205E-1,1.282819568E0
1.540356688E1,-1.017025807E0,-6.637028307E-1,2.358720016E-1,1.237125111E0
1.541351387E1,-8.919062821E-1,-7.961071819E-1,3.506013163E-1,1.245875092E0
1.542346087E1,-7.003622416E-1,-9.025031179E-1,3.863325914E-1,1.205932012E0
1.543340688E1,-6.254094154E-1,-9.420601165E-1,3.554616316E-1,1.185313111E0
1.544335387E1,-7.388468608E-1,-8.938211721E-1,3.646838236E-1,1.215650140E0
1.545330088E1,-6.882675683E-1,-1.004812435E0,3.175061488E-1,1.258638324E0
1.546324687E1,-4.795737174E-1,-1.189797288E0,2.042081594E-1,1.298964784E0
1.547319387E1,-4.913853854E-2,-1.309466988E0,1.023636961E-1,1.314380735E0
1.548314088E1,3.791789981E-1,-1.451488255E0,1.199920280E-1,1.504989354E0
1.549308687E1,7.826631906E-1,-1.742918746E0,7.273826636E-2,1.911967123E0
1.550303387E1,1.091862931E0,-2.053554416E0,7.408297978E-2,2.326959108E0
1.551298087E1,1.309317300E0,-2.090275515E0,2.024025393E-1,2.474778840E0
1.552292687E1,1.524937762E0,-2.315709652E0,2.016132382E-1,2.780034941E0
1.553287387E1,1.652964596E0,-2.503556133E0,2.774936521E-1,3.012820604E0
1.554282087E1,1.944586290E0,-2.530414149E0,2.230619216E-1,3.199088655E0
1.555276687E1,2.122532119E0,-2.718022648E0,1.077781447E-1,3.450276197E0
1.556271387E1,2.288054515E0,-2.864070307E0,-1.750663675E-2,3.665842150E0
1.557266087E1,2.341518970E0,-2.871898559E0,-1.086705029E-1,3.707063757E0
1.558260687E1,2.252077182E0,-2.918396788E0,-1.752643689E-1,3.690475449E0
1.559255388E1,2.224688385E0,-2.911340368E0,-2.589193138E-1,3.673170342E0
1.560250087E1,2.309880271E0,-2.920022314E0,-3.264184749E-1,3.737462535E0
1.561244687E1,2.301338658E0,-2.920636856E0,-4.545882726E-1,3.746055227E0
1.562239525E1,2.189563430E0,-2.939535057E0,-5.609432050E-1,3.708060361E0
1.563234125E1,2.098364700E0,-2.973714956E0,-6.402748648E-1,3.695411608E0
1.564228825E1,2.224630498E0,-2.973833655E0,-6.809342097E-1,3.775756726E0
1.565223525E1,2.462894011E0,-2.988773875E0,-7.124481440E-1,3.937791074E0
1.566218125E1,2.688286925E0,-3.041313447E0,-6.694231617E-1,4.113952046E0
1.567212825E1,3.013797912E0,-3.011082172E0,-7.452861071E-1,4.324932957E0
1.568207525E1,3.104801345E0,-3.048888515E0,-6.536753675E-1,4.400318631E0
1.569202125E1,3.201538558E0,-2.950574600E0,-4.967864585E-1,4.382069875E0
1.570196825E1,3.110623417E0,-2.824184695E0,-3.632664585E-1,4.217103242E0
1.571191525E1,2.625273820E0,-2.664187918E0,-2.720825657E-1,3.750198504E0
1.572186125E1,1.942278394E0,-2.452017020E0,-1.318944009E-1,3.130851156E0
1.573180825E1,1.371968461E0,-2.187507695E0,-5.542575717E-2,2.582742610E0
1.574175525E1,9.054386394E-1,-1.953472888E0,-4.920073830E-2,2.153670395E0
1.575170125E1,6.188146332E-1,-1.757990529E0,-1.006936582E-1,1.866440854E0
1.576164825E1,6.479358137E-1,-1.598446326E0,-1.363746107E-1,1.730158811E0
1.577159525E1,7.122227338E-1,-1.570069204E0,-2.001513612E-1,1.735637950E0
1.578154125E1,7.423961207E-1,-1.635976095E0,-1.897468257E-1,1.806536366E0
1.579148825E1,9.180216283E-1,-1.724137489E0,-8.149607979E-2,1.955007776E0
1.580143525E1,1.223943858E0,-1.802256875E0,2.421675526E-2,2.178704859E0
1.581138125E1,1.410644284E0,-1.960273200E0,5.613253936E-3,2.415081743E0
1.582132825E1,1.426901591E0,-2.171962872E0,-4.434455261E-3,2.598747878E0
1.583127525E1,1.156409394E0,-2.379087623E0,4.090836324E-2,2.645564987E0
1.584122125E1,1.168909280E0,-2.140851007E0,9.143875837E-3,2.439195677E0
1.585116825E1,1.006116072E0,-2.211461399E0,-1.166168690E-2,2.429602244E0
1.586111525E1,6.212599388E-1,-2.405706487E0,7.423624992E-3,2.484641367E0
1.587106125E1,6.442813039E-1,-2.236675177E0,-3.209185839E-2,2.327841089E0
1.588100825E1,6.667705724E-1,-2.138647776E0,-1.824214339E-1,2.247593132E0
1.589095525E1,6.758218429E-1,-2.059148448E0,-2.986336025E-1,2.187695025E0
1.590090125E1,7.327935308E-1,-1.859825052E0,-2.191489649E-1,2.010960430E0
1.591084825E1,4.709107751E-1,-1.636477786E0,9.808119535E-3,1.702913005E0
1.592079525E1,7.966772854E-2,-1.462045988E0,3.096942687E-1,1.496608151E0
1.593074125E1,-2.810820884E-1,-1.093443360E0,5.742328298E-1,1.266636833E0
1.594068825E1,-8.602892907E-1,-7.415707862E-1,6.588056414E-1,1.313030757E0
1.595063525E1,-1.695925843E0,-4.314870930E-1,6.397731006E-1,1.863237826E0
1.596058125E1,-2.237935252E0,4.111528158E-2,5.426695597E-1,2.303157596E0
1.597052825E1,-2.146286286E0,6.666919273E-1,2.149216472E-1,2.257701101E0
1.598047525E1,-1.621864863E0,1.506278420E0,-3.991565220E-1,2.249143447E0
1.599042125E1,-1.109255986E0,1.995575765E0,-9.115645480E-1,2.458398137E0
1.600036825E1,-8.924340664E-1,2.565929552E0,-1.103951903E0,2.932429510E0
1.601031525E1,-1.275863332E0,3.358921337E0,-8.673689532E-1,3.696283092E0
1.602026125E1,-2.176048176E0,3.960027970E0,-4.255029794E-1,4.538508562E0
1.603020825E1,-3.212952615E0,4.590298176E0,-2.201792443E-1,5.607350600E0
1.604015525E1,-4.463536680E0,5.060319589E0,-1.186750889E-2,6.747602158E0
1.605010125E1,-5.628290051E0,5.559451951E0,4.322179949E-1,7.922876201E0
1.606004825E1,-6.894608096E0,7.220388640E0,1.336748343E0,1.007256318E1
1.606999525E1,-8.086037343E0,8.786725566E0,1.281017361E0,1.200964411E1
1.607994125E1,-7.606196115E0,7.722400755E0,-1.058072310E0,1.089078554E1
1.608988825E1,-5.566732904E0,5.617282083E0,-6.261080845E-1,7.933119472E0
1.609983525E1,-3.747270304E0,4.532637613E0,-1.410289943E-1,5.882748307E0
1.610978125E1,-3.004815127E0,4.661965159E0,2.710267047E-1,5.553043181E0
1.611972825E1,-3.399640762E0,4.877952535E0,5.263768780E-1,5.969007527E0
1.612967425E1,-4.304075508E0,3.555368487E0,4.573465504E-2,5.582813154E0
1.613962125E1,-4.452242491E0,2.402171261E0,-4.767550671E-1,5.081356645E0
1.614956825E1,-3.607330939E0,2.539727009E0,-2.305697099E-1,4.417715719E0
1.615951425E1,-2.639545997E0,2.607605581E0,2.556660326E-1,3.719163220E0
1.616946125E1,-2.101705214E0,2.209286819E0,5.384666177E-1,3.096459164E0
1.617940825E1,-1.878576780E0,1.476805530E0,6.241049016E-1,2.469719057E0
1.618935425E1,-1.678589433E0,9.334331346E-1,7.424361742E-1,2.059167641E0
1.619930125E1,-1.348742736E0,6.767684340E-1,9.643941414E-1,1.790859721E0
1.620924825E1,-9.629489290E-1,5.202677071E-1,1.118013361E0,1.564577579E0
1.621919425E1,-8.179455822E-1,3.229949301E-1,1.037304243E0,1.359912053E0
