"Time (s)","Linear Acceleration x (m/s^2)","Linear Acceleration y (m/s^2)","Linear Acceleration z (m/s^2)","Absolute acceleration (m/s^2)"
4.387541674E-3,-2.534741088E0,3.377351761E-1,3.304822898E0,4.178616017E0
1.433054169E-2,-3.273953692E0,1.864317102E-1,3.661959720E0,4.915636129E0
2.427354167E-2,-3.760814502E0,-1.107126430E-1,3.880946717E0,5.405342767E0
3.421654168E-2,-3.557437817E0,-1.073557565E-1,3.851884886E0,5.244416674E0
4.415954169E-2,-3.080488037E0,-8.254543573E-2,3.386251808E0,4.578528323E0
5.410254168E-2,-2.678649251E0,-2.083579284E-1,2.286556605E0,3.528018700E0
6.404554169E-2,-1.977748774E0,-2.234212695E-1,1.008059394E0,2.231051550E0
7.398854167E-2,-1.400460189E0,-1.882116392E-1,3.541494799E-1,1.456754686E0
8.393154168E-2,-9.470331734E-1,-7.588194877E-2,3.926896477E-1,1.028024835E0
9.387454169E-2,-7.036802441E-1,4.744693905E-2,9.564489448E-1,1.188365130E0
1.038175417E-1,-1.050708985E0,1.643845278E-1,1.785005250E0,2.077800613E0
1.137605417E-1,-9.429173183E-1,4.315645686E-1,1.908232396E0,2.171794632E0
1.237035417E-1,-8.056492531E-1,3.342528668E-1,1.977972722E0,2.161752018E0
1.336465417E-1,-9.370414513E-1,-2.351284185E-2,2.101674078E0,2.301224340E0
1.435885417E-1,-4.059452856E-1,1.289156100E-1,1.427106535E0,1.489309865E0
1.535315417E-1,3.315488219E-2,1.377820172E-1,6.113269812E-1,6.275378940E-1
1.634745417E-1,5.008783400E-1,-1.788283199E-2,-2.705506682E-1,5.695582246E-1
1.734175417E-1,1.425207945E0,1.869012599E-1,-1.353496522E0,1.974361315E0
1.833605417E-1,1.992312434E0,2.835958064E-2,-2.309586448E0,3.050295504E0
1.933035417E-1,1.759932389E0,-6.436006880E-1,-2.193529742E0,2.884988144E0
2.032465417E-1,-2.242641091E-2,-1.076230327E0,-6.347491729E-1,1.249672426E0
2.131895417E-1,-9.806634343E-1,-9.789917153E-1,5.780019450E-1,1.501403276E0
2.231325417E-1,-1.097799536E0,-1.130158027E0,1.018197296E0,1.875938891E0
2.330751667E-1,-1.291186838E0,-1.394893640E0,1.145437387E0,2.219215745E0
2.430181667E-1,-1.152517195E0,-1.417758884E0,9.533867580E-1,2.060893605E0
2.529611667E-1,-8.025385344E-1,-1.333262233E0,4.131186497E-1,1.610069346E0
2.629041667E-1,-3.171728575E-1,-1.355361492E0,-2.950832462E-1,1.422911634E0
2.728471667E-1,4.075684726E-1,-1.502495856E0,-8.988217109E-1,1.797633535E0
2.827901667E-1,1.450148073E0,-1.460579214E0,-1.454476767E0,2.520262633E0
2.927321667E-1,2.675195301E0,-1.246875176E0,-1.957215106E0,3.541476892E0
3.026751667E-1,3.025769209E0,-8.387447861E-1,-2.194674042E0,3.830844068E0
3.126181667E-1,2.138030895E0,-7.133158708E-1,-2.326046945E0,3.238902596E0
3.225611667E-1,1.899452802E0,-6.886952922E-1,-2.709255917E0,3.379687822E0
3.325041667E-1,2.229296576E0,-6.449376538E-1,-2.973810266E0,3.772168514E0
3.424471667E-1,2.782211627E0,-6.743219590E-1,-3.012908843E0,4.156083653E0
3.523901667E-1,3.093813257E0,-8.511388367E-1,-2.708808605E0,4.199257297E0
3.623331667E-1,3.322319521E0,-8.760289720E-1,-2.469183276E0,4.231087308E0
3.722761667E-1,3.673873422E0,-8.380206084E-1,-2.492426543E0,4.517943618E0
3.822191667E-1,3.920717139E0,-7.583189660E-1,-2.463938323E0,4.692340845E0
3.921621667E-1,4.513839399E0,-3.809907579E-1,-2.607295679E0,5.226651972E0
4.021051667E-1,5.521253845E0,8.192248799E-2,-2.790273768E0,6.186807175E0
4.120481667E-1,6.243848662E0,6.177039546E-1,-2.826796061E0,6.881713469E0
4.219911667E-1,5.485201668E0,3.212786262E-1,-2.177517142E0,5.910350091E0
4.319341667E-1,4.301058637E0,-4.799923781E-1,-1.669513385E0,4.638617577E0
4.418771667E-1,3.539751159E0,-8.190680283E-1,-1.540179407E0,3.946246737E0
4.518191667E-1,2.864967855E0,-9.205565424E-1,-1.356944333E0,3.301024550E0
4.617621667E-1,2.389758207E0,-1.106905697E0,-8.598330617E-1,2.770468806E0
4.717051667E-1,2.075129473E0,-1.176719698E0,-2.041210359E-1,2.394263347E0
4.816481667E-1,1.729762511E0,-1.254131717E0,2.145165083E-1,2.147310420E0
4.915911667E-1,1.784685992E0,-1.227342260E0,1.807731038E-1,2.173511451E0
5.015341667E-1,1.512088214E0,-1.222717112E0,-8.958577573E-2,1.946657010E0
5.114771667E-1,7.833134741E-1,-1.271967625E0,-2.030831552E-1,1.507555772E0
5.214201667E-1,1.855812693E-1,-1.194902785E0,-1.994470641E-1,1.225566075E0
5.313631667E-1,-3.353389871E-1,-9.203602222E-1,-2.139709631E-1,1.002645874E0
5.413061667E-1,-1.146986899E0,-7.933338475E-1,-1.649208637E-1,1.404334871E0
5.512491667E-1,-2.082492871E0,-8.450258651E-1,3.466989577E-2,2.247675972E0
5.611921667E-1,-3.043005631E0,-9.366777545E-1,4.495219526E-1,3.215481064E0
5.711351667E-1,-4.327269951E0,-1.053464485E0,1.011859353E0,4.567155788E0
5.810781667E-1,-5.537119680E0,-1.071183303E0,1.321299706E0,5.792491772E0
5.910211667E-1,-6.052864566E0,-8.457137901E-1,1.209789796E0,6.230248199E0
6.009631667E-1,-6.175679483E0,-6.197323537E-1,8.689757681E-1,6.267232576E0
6.109061667E-1,-6.443541017E0,-5.983920631E-1,7.242381772E-1,6.511667593E0
6.208491667E-1,-6.204337272E0,-1.713818908E-3,2.019352005E-1,6.207622874E0
6.307921667E-1,-6.268940234E0,4.301711771E-1,-1.256932095E-1,6.284938956E0
6.407351667E-1,-6.841150512E0,3.100863245E-1,-1.602138551E-1,6.850048346E0
6.506781667E-1,-6.854278096E0,4.220970494E-1,-1.723399571E-1,6.869424663E0
6.606211667E-1,-6.571782736E0,8.810528997E-1,-1.193767548E-2,6.630590098E0
6.705641667E-1,-6.457367928E0,1.381911651E0,2.674680161E-1,6.608995348E0
6.805071667E-1,-6.406372606E0,1.860719676E0,5.525608559E-1,6.693968269E0
6.904501667E-1,-6.083394048E0,2.324981582E0,7.009361458E-1,6.550155264E0
7.003931667E-1,-5.449107975E0,2.831008103E0,7.907357834E-1,6.191336502E0
7.103361667E-1,-4.623914988E0,3.419554040E0,9.104844211E-1,5.822621534E0
7.202791667E-1,-3.896174036E0,3.615570543E0,1.178750144E0,5.444444358E0
7.302221667E-1,-2.861737853E0,3.935301265E0,1.111535815E0,4.991157326E0
7.401641667E-1,-1.755813611E0,4.411433018E0,6.833430433E-1,4.796934482E0
7.501071667E-1,-1.480447760E0,3.972220877E0,6.794552296E-1,4.293241627E0
7.600501667E-1,-1.534979478E0,3.225516527E0,9.186771011E-1,3.688371793E0
7.699931667E-1,-1.684829582E0,2.769840673E0,1.158311786E0,3.442724832E0
7.799361667E-1,-1.913069213E0,2.443156734E0,1.163085745E0,3.313852304E0
7.898791667E-1,-2.152294008E0,2.245231700E0,1.141764750E0,3.313164896E0
7.998221667E-1,-2.641307763E0,2.120941238E0,1.217907193E0,3.599749486E0
8.097651667E-1,-3.081688471E0,2.065354682E0,1.296650623E0,3.929859620E0
8.197081667E-1,-3.262856262E0,2.136761172E0,1.326368219E0,4.119615509E0
8.296511667E-1,-3.127369258E0,2.279633501E0,1.405535134E0,4.117365224E0
8.395941667E-1,-2.904506142E0,2.275241657E0,1.519771455E0,3.990311492E0
8.495371667E-1,-2.667214437E0,2.183549715E0,1.440812555E0,3.736022354E0
8.594801667E-1,-2.494616325E0,2.045759201E0,1.181246466E0,3.435634516E0
8.694231667E-1,-2.118198894E0,1.969434325E0,8.139053755E-1,3.004643086E0
8.793651667E-1,-1.502356693E0,1.999192268E0,4.437584983E-1,2.539836010E0
8.893081667E-1,-8.513142532E-1,2.042590595E0,2.041437670E-1,2.222293179E0
8.992511667E-1,-3.286433405E-1,1.997654742E0,2.186940515E-1,2.036285344E0
9.091941667E-1,1.616111934E-2,1.862283514E0,3.717103495E-1,1.899086531E0
9.191371667E-1,3.737072468E-1,1.740409413E0,4.551156914E-1,1.837338381E0
9.290801667E-1,8.741236567E-1,1.585692379E0,5.646153295E-1,1.896655730E0
9.390231667E-1,1.195365007E0,1.342506680E0,7.031652506E-1,1.930197673E0
9.489661667E-1,1.460782989E0,1.079824318E0,8.048201180E-1,1.986867616E0
9.589091667E-1,1.818860629E0,8.926689783E-1,8.472381592E-1,2.196115750E0
9.688521667E-1,2.118272569E0,6.505044955E-1,6.977938521E-1,2.323176927E0
9.787951667E-1,2.459186876E0,3.449576569E-1,4.320351233E-1,2.520565457E0
9.887381667E-1,2.777958362E0,5.677383274E-2,2.559968023E-1,2.790306487E0
9.986811667E-1,3.019923162E0,-2.694205476E-1,1.786796544E-1,3.037177927E0
1.008624167E0,3.154973963E0,-5.703102252E-1,1.410073596E-1,3.209205126E0
1.018566167E0,3.244670252E0,-8.429506883E-1,1.830786610E-1,3.357375270E0
1.028509167E0,3.183277411E0,-1.193264249E0,2.461629550E-1,3.408479256E0
1.038452167E0,2.936979239E0,-1.623958898E0,3.346291351E-1,3.372694206E0
1.048395167E0,2.656733887E0,-1.975803259E0,4.404627152E-1,3.340065998E0
1.058338167E0,2.350487722E0,-2.288030541E0,6.014555655E-1,3.334910056E0
1.068281167E0,2.014203240E0,-2.524851692E0,5.552790803E-1,3.277228344E0
1.078224167E0,1.835156234E0,-2.699167131E0,3.543347635E-1,3.283116618E0
1.088167167E0,1.813704554E0,-2.882481727E0,1.014070916E-1,3.407126137E0
1.098110167E0,1.890420023E0,-3.024246594E0,-1.453092293E-1,3.569435543E0
1.108053167E0,1.983190193E0,-3.120520999E0,-2.766376928E-1,3.707724782E0
1.117996167E0,2.028347070E0,-3.298577487E0,-4.012418584E-1,3.893045119E0
1.127939167E0,1.976037294E0,-3.545089082E0,-4.319835216E-1,4.081542570E0
1.137882167E0,1.768179302E0,-3.806242982E0,-3.290555692E-1,4.209776865E0
1.147824167E0,1.442936118E0,-4.053655341E0,-1.822604893E-1,4.306669845E0
1.157767167E0,8.964722997E-1,-4.176546273E0,-1.066823765E-1,4.273006258E0
1.167710167E0,2.985494757E-1,-4.069689576E0,-1.331914596E-1,4.082798672E0
1.177653167E0,-3.233165270E-1,-3.910873352E0,-2.626054716E-1,3.932991938E0
1.187596167E0,-8.640161598E-1,-3.863212697E0,-5.110975919E-1,3.991510618E0
1.197539167E0,-1.131905760E0,-3.899804572E0,-6.833192159E-1,4.117840636E0
1.207482167E0,-1.170625437E0,-3.940223451E0,-8.024706336E-1,4.188040577E0
1.217425167E0,-9.836004907E-1,-3.945963078E0,-8.555289993E-1,4.155721887E0
1.227368167E0,-7.841952342E-1,-3.862549623E0,-7.603304082E-1,4.014019691E0
1.237311458E0,-5.127581280E-1,-3.704598786E0,-6.841827035E-1,3.801983566E0
1.247254458E0,-1.220313907E-3,-3.263002442E0,-6.063281965E-1,3.318858284E0
1.257197458E0,4.824689662E-1,-2.707065842E0,-4.502420372E-1,2.786341629E0
1.267140458E0,6.724210292E-1,-2.186348923E0,-8.576173324E-2,2.289023095E0
1.277083458E0,5.803566188E-1,-1.613303078E0,4.117608166E-1,1.763266173E0
1.287025458E0,4.022638786E-1,-1.072236825E0,8.325031757E-1,1.415828229E0
1.296968458E0,6.798733056E-2,-6.217984673E-1,1.272585676E0,1.418002085E0
1.306911458E0,-5.501083875E-1,-4.184670979E-1,1.687173146E0,1.823262783E0
1.316854458E0,-1.386560188E0,-4.145389384E-1,1.974364405E0,2.447959659E0
1.326797458E0,-2.028649955E0,-4.288339189E-1,2.060309705E0,2.923045544E0
1.336740458E0,-2.528333709E0,-5.732306170E-1,1.857049963E0,3.188996590E0
1.346683458E0,-2.738308393E0,-6.812488630E-1,1.456508675E0,3.175507894E0
1.356626458E0,-2.546722033E0,-6.729034245E-1,1.011236186E0,2.821558214E0
1.366569458E0,-2.246420147E0,-6.333350238E-1,6.024929712E-1,2.410500883E0
1.376512458E0,-1.712755299E0,-3.837764445E-1,7.017185032E-2,1.756627212E0
1.386455458E0,-1.120770323E0,-1.176532879E-1,-4.071919119E-1,1.198237733E0
1.396398458E0,-4.916379851E-1,1.350709739E-1,-8.730606329E-1,1.011032613E0
1.406340458E0,-4.200990558E-2,3.419396165E-1,-1.231094418E0,1.278390003E0
1.416283458E0,1.503050172E-1,5.138933650E-1,-1.358331585E0,1.460048863E0
1.426226458E0,3.585313833E-1,7.390968293E-1,-1.342034225E0,1.573488080E0
1.436169458E0,6.097382927E-1,9.617029604E-1,-1.259856287E0,1.698202354E0
1.446112458E0,9.850149322E-1,1.212703755E0,-1.286607299E0,2.023922715E0
1.456055458E0,1.356895509E0,1.377953086E0,-1.235379843E0,2.294794868E0
1.465998458E0,1.614826716E0,1.446505550E0,-1.073602588E0,2.419228420E0
1.475941458E0,1.901725030E0,1.586786101E0,-6.807258296E-1,2.568625289E0
1.485884458E0,2.155966060E0,1.628625268E0,-2.352089639E-1,2.712182363E0
1.495827458E0,2.390982029E0,1.632601082E0,1.079430727E-1,2.897211256E0
1.505770458E0,2.492120733E0,1.631355041E0,3.656877905E-1,3.000951945E0
1.515713458E0,2.587445551E0,1.670711480E0,4.975437460E-1,3.119887996E0
1.525656458E0,2.652304037E0,1.721413564E0,5.264195627E-1,3.205479514E0
1.535598458E0,2.687383822E0,1.784138985E0,3.625191844E-1,3.246013537E0
1.545541458E0,2.625467656E0,1.839063343E0,1.298304800E-1,3.208128792E0
1.555484458E0,2.464427150E0,1.898561686E0,-6.227869391E-2,3.111561713E0
1.565427458E0,2.380876286E0,1.999360960E0,-2.497123611E-1,3.119033889E0
1.575370458E0,2.350529237E0,2.055752969E0,-4.625954497E-1,3.156755061E0
1.585313458E0,2.284011896E0,1.961725356E0,-7.325151303E-1,3.098653761E0
1.595256458E0,2.169181352E0,1.795888965E0,-9.188863584E-1,2.962248648E0
1.605199458E0,1.930046604E0,1.560028658E0,-9.918528123E-1,2.672553331E0
1.615142458E0,1.595329176E0,1.299256288E0,-9.842455117E-1,2.280763317E0
1.625085458E0,1.307093604E0,1.105724560E0,-1.039945357E0,2.003149230E0
1.635028458E0,1.128841819E0,9.947128317E-1,-1.074547644E0,1.848888885E0
1.644971458E0,1.009900682E0,8.974712965E-1,-1.020011760E0,1.692860924E0
1.654914458E0,8.500378060E-1,7.578725311E-1,-8.474205192E-1,1.419526887E0
1.664856458E0,7.281841707E-1,6.013656646E-1,-5.668279159E-1,1.101447564E0
1.674799458E0,4.776531994E-1,4.090229675E-1,-3.650380918E-1,7.271211559E-1
1.684742458E0,1.039675874E-1,2.490089411E-1,-2.224304223E-1,3.496998781E-1
1.694685458E0,-4.725579357E-1,1.039067763E-1,-1.396910783E-1,5.036081990E-1
1.704628458E0,-1.109709145E0,-1.838978559E-2,-7.956891060E-2,1.112710107E0
1.714571458E0,-1.754203287E0,-1.468794259E-1,-7.153008543E-2,1.761794339E0
1.724514458E0,-2.373701752E0,-3.450494581E-1,-1.850567740E-1,2.405777452E0
1.734457458E0,-3.082856745E0,-6.665080324E-1,-3.932906684E-1,3.178508489E0
1.744400458E0,-3.649492872E0,-9.357389840E-1,-5.528366983E-1,3.807891028E0
1.754343458E0,-3.979365882E0,-1.017187774E0,-6.162439048E-1,4.153285487E0
1.764286458E0,-4.128523090E0,-9.448404676E-1,-6.845744669E-1,4.290229437E0
1.774229458E0,-4.184591457E0,-7.914644927E-1,-7.897139094E-1,4.331381969E0
1.784171458E0,-4.210767102E0,-7.246790573E-1,-8.342058849E-1,4.353345700E0
1.794114458E0,-4.154462509E0,-7.359045419E-1,-7.904009572E-1,4.292533972E0
1.804057458E0,-3.803103320E0,-4.512676388E-1,-5.958628500E-1,3.875859889E0
1.814000458E0,-3.197300788E0,4.284664214E-2,-2.697812477E-1,3.208948439E0
1.823943458E0,-2.680050244E0,5.987776870E-1,3.903535388E-2,2.746402700E0
1.833886458E0,-2.229890653E0,1.116584009E0,2.565483409E-1,2.506988078E0
1.843829458E0,-1.816612374E0,1.661244545E0,5.112956663E-1,2.514207075E0
1.853772458E0,-1.441688322E0,2.140789904E0,8.704591336E-1,2.723810884E0
1.863715458E0,-1.160330245E0,2.407093447E0,1.218598261E0,2.936911109E0
1.873658458E0,-1.049333135E0,2.433345691E0,1.519114228E0,3.054501484E0
1.883601458E0,-9.799044657E-1,2.268357438E0,1.792890220E0,3.052886105E0
1.893544458E0,-8.667818928E-1,2.060509095E0,2.108801249E0,3.073117519E0
1.903487458E0,-9.155839241E-1,1.725203729E0,2.373240992E0,3.073580100E0
1.913429458E0,-1.207964587E0,1.275697856E0,2.421434913E0,2.991643445E0
1.923372458E0,-1.505088512E0,7.853363183E-1,2.179921517E0,2.762987945E0
1.933315458E0,-1.861900814E0,4.011453062E-1,1.743056009E0,2.581828121E0
1.943258458E0,-2.259368806E0,3.270581603E-2,1.364751828E0,2.639766017E0
1.953201458E0,-2.477325523E0,-1.940427750E-1,1.125182632E0,2.727788537E0
1.963144458E0,-2.545266076E0,-2.257911095E-1,9.992880587E-1,2.743708740E0
1.973087458E0,-2.593674005E0,-1.012933633E-1,8.776091820E-1,2.740000560E0
1.983030458E0,-2.526716954E0,9.563676685E-2,7.675815403E-1,2.642465965E0
1.992973458E0,-2.387112926E0,3.232782277E-1,6.920600724E-1,2.506344765E0
2.002916458E0,-2.250231947E0,4.939973366E-1,6.015978722E-1,2.381070596E0
2.012859458E0,-1.976963493E0,5.822867846E-1,5.630377142E-1,2.136458288E0
2.022802458E0,-1.491557470E0,6.920577335E-1,5.992121351E-1,1.750069363E0
2.032744458E0,-9.004431438E-1,8.165382305E-1,6.503956642E-1,1.378603299E0
2.042687458E0,-2.792314446E-1,8.204210740E-1,7.003409723E-1,1.114243428E0
2.052630458E0,4.401795638E-1,8.033764404E-1,7.477420107E-1,1.182493073E0
2.062573458E0,1.187492316E0,8.301341763E-1,7.588750362E-1,1.635589212E0
2.072516458E0,1.881998278E0,8.165730214E-1,6.460307908E-1,2.150828864E0
2.082459458E0,2.548277392E0,7.627347833E-1,4.836851871E-1,2.703596379E0
2.092402458E0,3.130457758E0,7.027587229E-1,3.143455826E-1,3.223732114E0
2.102345458E0,3.576063538E0,5.901366717E-1,1.926464599E-1,3.629546029E0
2.112288458E0,3.938962791E0,4.100576323E-1,2.315351218E-3,3.960250054E0
2.122231458E0,4.251358473E0,2.251847532E-1,-2.113556497E-1,4.262561231E0
2.132174458E0,4.351425383E0,2.649578065E-2,-3.393525159E-1,4.364718206E0
2.142117458E0,4.351685584E0,-1.985498089E-1,-3.710597737E-1,4.371987512E0
2.152059458E0,4.304292147E0,-3.757596195E-1,-4.049139829E-1,4.339594625E0
2.162002458E0,4.183748873E0,-4.452733657E-1,-5.603271277E-1,4.244524648E0
2.171945458E0,3.843744977E0,-5.661122167E-1,-7.560859144E-1,3.958096058E0
2.181888458E0,3.464373533E0,-6.884517556E-1,-9.965666914E-1,3.670012938E0
2.191831458E0,3.185044439E0,-6.679653047E-1,-1.252327559E0,3.486977207E0
2.201774458E0,2.901072072E0,-6.812874547E-1,-1.492295973E0,3.332764474E0
2.211717458E0,2.521602395E0,-7.681718168E-1,-1.619240195E0,3.093623342E0
2.221660458E0,2.029864422E0,-9.417203933E-1,-1.580830420E0,2.739746646E0
2.231603458E0,1.513313205E0,-1.150558963E0,-1.510726251E0,2.428208514E0
2.241546083E0,1.111643404E0,-1.257965590E0,-1.484585835E0,2.241031812E0
2.251489083E0,7.903400731E-1,-1.453853454E0,-1.487331102E0,2.224967664E0
2.261432083E0,5.476437861E-1,-1.780563559E0,-1.510374395E0,2.398239170E0
2.271374083E0,4.634994292E-1,-2.127561748E0,-1.562937355E0,2.680321601E0
2.281317083E0,4.027544600E-1,-2.493348649E0,-1.515577832E0,2.945500773E0
2.291260083E0,1.743242097E-1,-2.865641454E0,-1.392996218E0,3.191038755E0
2.301203083E0,-1.272207946E-1,-3.202769689E0,-1.242477193E0,3.437683579E0
2.311146083E0,-5.001503617E-1,-3.462826359E0,-1.086791568E0,3.663663834E0
2.321089083E0,-8.970371407E-1,-3.583456757E0,-8.929084948E-1,3.800410970E0
2.331032083E0,-1.256988228E0,-3.660952830E0,-6.657447515E-1,3.927570636E0
2.340975083E0,-1.562644994E0,-3.715949694E0,-4.167393187E-1,4.052630401E0
2.350918083E0,-1.917018422E0,-3.864889678E0,-2.078264896E-1,4.319204060E0
2.360861083E0,-2.145277934E0,-3.916805060E0,-1.216185042E-1,4.467479194E0
2.370804083E0,-1.989772403E0,-3.680734545E0,-5.199110270E-2,4.184459832E0
2.380747083E0,-1.743376583E0,-3.260565323E0,8.045534849E-2,3.698259212E0
2.390689083E0,-1.737213618E0,-2.850578442E0,2.946645856E-1,3.351199162E0
2.400632083E0,-1.768217894E0,-2.267924159E0,5.157513177E-1,2.921656026E0
2.410575083E0,-1.613809301E0,-1.415951217E0,6.476657454E-1,2.242491745E0
2.420518083E0,-1.413093098E0,-4.609415647E-1,7.689964934E-1,1.673515712E0
2.430461083E0,-1.307402337E0,2.722226796E-1,9.083041406E-1,1.615061135E0
2.440404083E0,-1.447305157E0,8.417353445E-1,9.968537897E-1,1.948570780E0
2.450347083E0,-1.612056305E0,1.238984066E0,9.832104814E-1,2.258430849E0
2.460290083E0,-1.766822748E0,1.246192806E0,9.576552254E-1,2.364690818E0
2.470233083E0,-1.898322535E0,9.646622363E-1,9.001355072E-1,2.311805703E0
2.480176083E0,-2.084516008E0,4.784221083E-1,8.721566534E-1,2.309708191E0
2.490119083E0,-2.269292700E0,1.255777270E-2,8.347455829E-1,2.417984128E0
2.500062083E0,-2.378424549E0,-4.262117350E-1,6.426277113E-1,2.500306012E0
2.510004083E0,-2.371707852E0,-6.627634755E-1,3.394542575E-1,2.485856543E0
2.519947083E0,-2.176983292E0,-7.021222535E-1,-5.163676143E-2,2.287990006E0
2.529890083E0,-1.912428358E0,-5.736916700E-1,-4.437989902E-1,2.045351290E0
2.539833083E0,-1.684274096E0,-3.610252208E-1,-7.916861022E-1,1.895754553E0
2.549776083E0,-1.530639675E0,-1.477720034E-1,-1.183149589E0,1.940241564E0
2.559719083E0,-1.183561817E0,4.092670888E-2,-1.572897502E0,1.968882963E0
2.569662083E0,-6.933254099E-1,1.237586582E-1,-1.844756777E0,1.974625002E0
2.579605083E0,-1.131845534E-2,1.548614600E-1,-1.878372420E0,1.884779331E0
2.589548083E0,8.966570717E-1,1.793320575E-1,-1.743030428E0,1.968326437E0
2.599491083E0,1.793712339E0,2.359983015E-1,-1.396229728E0,2.285291362E0
2.609434083E0,2.650670909E0,3.736519906E-1,-9.230139810E-1,2.831541433E0
2.619377083E0,3.354682691E0,5.105502194E-1,-5.113483644E-1,3.431622740E0
2.629319083E0,3.901150602E0,5.583240178E-1,-1.026233856E-1,3.942237091E0
2.639262083E0,4.304374008E0,6.791353869E-1,1.956396496E-1,4.362010471E0
2.649205083E0,4.592665713E0,8.637378323E-1,4.467102458E-1,4.694483086E0
2.659148083E0,4.745894923E0,1.045406730E0,6.046687567E-1,4.897143878E0
2.669091083E0,4.680492062E0,1.214431315E0,6.737559485E-1,4.882191766E0
2.679034083E0,4.399353840E0,1.328932077E0,6.564610541E-1,4.642339474E0
2.688977083E0,3.927575338E0,1.385732807E0,5.674592690E-1,4.203345510E0
2.698920083E0,3.435600554E0,1.445478195E0,4.332453507E-1,3.752393891E0
2.708863083E0,3.041208197E0,1.516863927E0,1.400851806E-1,3.401389029E0
2.718806083E0,2.677439463E0,1.424050781E0,-1.359981962E-1,3.035638024E0
2.728749083E0,2.325184481E0,1.265241573E0,-3.126442621E-1,2.665532881E0
2.738691083E0,2.072912793E0,1.162439920E0,-4.573809028E-1,2.420213070E0
2.748634083E0,1.890531120E0,1.025182088E0,-5.583611476E-1,2.221907604E0
2.758577083E0,1.723118904E0,8.945740011E-1,-6.077082125E-1,2.034382135E0
2.768520083E0,1.637351945E0,8.032173961E-1,-6.193868563E-1,1.926063253E0
2.778463083E0,1.551514235E0,7.857710588E-1,-5.156730381E-1,1.813987668E0
2.788406083E0,1.336085853E0,7.953444126E-1,-3.713345198E-1,1.598620489E0
2.798349083E0,9.994335812E-1,8.149811170E-1,-2.903365497E-1,1.321876324E0
2.808292083E0,6.974196303E-1,8.364368901E-1,-2.665681297E-1,1.121195514E0
2.818235083E0,4.412677306E-1,7.921389690E-1,-3.012076930E-1,9.554723599E-1
2.828178083E0,9.236905038E-2,6.467014664E-1,-3.389129515E-1,7.359462051E-1
2.838121083E0,-4.430879688E-1,3.920277429E-1,-2.354627696E-1,6.367538105E-1
2.848064083E0,-1.054440093E0,2.345461455E-1,-2.304925632E-1,1.104528237E0
2.858006083E0,-1.561814690E0,1.178374752E-1,-3.736457779E-1,1.610205565E0
2.867949083E0,-2.157265896E0,-5.856688142E-2,-6.253479465E-1,2.246839175E0
2.877892083E0,-2.816606703E0,-3.374182570E-1,-8.997554382E-1,2.976018187E0
2.887835083E0,-3.566579939E0,-6.986139241E-1,-1.190149364E0,3.824265862E0
2.897778083E0,-4.229187001E0,-1.081467386E0,-1.498805094E0,4.615410177E0
2.907721083E0,-4.802588357E0,-1.468623521E0,-1.793876061E0,5.332888644E0
2.917664083E0,-5.214798349E0,-1.738245943E0,-2.023286304E0,5.857414810E0
2.927607083E0,-5.267815638E0,-1.710139547E0,-2.205172133E0,5.961312188E0
2.937550083E0,-4.961200513E0,-1.372781809E0,-2.208417338E0,5.601352298E0
2.947493083E0,-4.411957514E0,-8.297672635E-1,-1.968849896E0,4.902066169E0
2.957436083E0,-3.775291039E0,-2.561176935E-1,-1.625537646E0,4.118348132E0
2.967379083E0,-3.330323775E0,4.901691645E-2,-1.294126818E0,3.573265079E0
2.977321083E0,-2.997648779E0,2.919032380E-1,-9.533698010E-1,3.159116915E0
2.987264083E0,-2.651179617E0,7.294857609E-1,-6.401286844E-1,2.823237073E0
2.997207083E0,-2.102514322E0,1.350948013E0,-3.394372275E-1,2.522071498E0
3.007150083E0,-1.450953235E0,1.945106108E0,-1.338386732E-1,2.430353030E0
3.017093083E0,-8.970634532E-1,2.333178209E0,4.305772662E-2,2.500059472E0
3.027036083E0,-4.043495804E-1,2.506477402E0,2.041385776E-1,2.547076777E0
3.036979083E0,-8.900514722E-2,2.570253860E0,5.069891920E-1,2.621290686E0
3.046922083E0,7.139450312E-3,2.559479196E0,9.702388720E-1,2.737215409E0
3.056865083E0,3.785370469E-2,2.591213205E0,1.485130795E0,2.986876672E0
3.066808083E0,-1.164209872E-1,2.575065826E0,1.918180118E0,3.213087739E0
3.076751083E0,-4.757569474E-1,2.325193836E0,2.214932891E0,3.246351607E0
3.086694083E0,-1.022439451E0,1.883316826E0,2.360562474E0,3.188184419E0
3.096636083E0,-1.796920121E0,1.232587212E0,2.338562179E0,3.196414589E0
3.106579083E0,-2.622420672E0,5.655798277E-1,2.053991788E0,3.378735412E0
3.116522083E0,-3.179966133E0,1.091634232E-1,1.716101661E0,3.615121875E0
3.126465083E0,-3.438355177E0,-8.825845778E-2,1.414716285E0,3.719072202E0
3.136408083E0,-3.373239999E0,-5.789474398E-2,1.124913075E0,3.556336502E0
3.146351083E0,-2.960154094E0,2.563170835E-1,9.053278347E-1,3.106095490E0
3.156294083E0,-2.445747635E0,7.260268405E-1,7.862189555E-1,2.669632318E0
3.166237083E0,-1.976993898E0,1.170137780E0,7.441529167E-1,2.414847999E0
3.176180083E0,-1.576398230E0,1.463864180E0,6.070754707E-1,2.235278583E0
3.186123083E0,-1.200306489E0,1.634870971E0,4.552103432E-1,2.078642638E0
3.196066083E0,-8.544220483E-1,1.619285510E0,2.989143419E-1,1.855120585E0
3.206009083E0,-4.655091172E-1,1.582053950E0,6.737403072E-2,1.650494683E0
3.215952083E0,-4.740571618E-2,1.533099891E0,1.003455296E-3,1.533832971E0
3.225894083E0,4.160340714E-1,1.434802933E0,1.379182756E-1,1.500255064E0
3.235837417E0,1.093525221E0,1.363707807E0,2.578972205E-1,1.766920307E0
3.245780417E0,1.690116050E0,1.189457273E0,3.528373647E-1,2.096615146E0
3.255723417E0,2.256199030E0,9.327919874E-1,4.644911170E-1,2.485213664E0
3.265666417E0,2.881899637E0,8.113157898E-1,4.483434463E-1,3.027307496E0
3.275609417E0,3.368062874E0,7.344760671E-1,3.543593949E-1,3.465382114E0
3.285552417E0,3.645040802E0,5.993150461E-1,2.772732121E-1,3.704373281E0
3.295495417E0,3.777120633E0,3.947525454E-1,2.071025312E-1,3.803335550E0
3.305438417E0,3.756713265E0,2.333691010E-1,1.225558859E-1,3.765949500E0
3.315381417E0,3.645129679E0,6.404309124E-2,-1.545126736E-4,3.645692242E0
3.325324417E0,3.584120416E0,-1.252324489E-1,-1.176682714E-1,3.588237471E0
3.335267417E0,3.512530616E0,-3.371159559E-1,-2.941161899E-1,3.540907063E0
3.345209417E0,3.394594615E0,-5.405122295E-1,-4.220941257E-1,3.463176219E0
3.355152417E0,3.298835349E0,-7.427250266E-1,-4.267917788E-1,3.408240946E0
3.365095417E0,3.200105698E0,-9.555759555E-1,-4.470992319E-1,3.369525131E0
3.375038417E0,3.081325943E0,-1.206423261E0,-4.563048689E-1,3.340395304E0
3.384981417E0,2.800730343E0,-1.515775614E0,-3.810667717E-1,3.207316332E0
3.394924417E0,2.477530761E0,-1.769565092E0,-3.361114043E-1,3.063085073E0
3.404867417E0,2.215985974E0,-1.910775935E0,-4.162545115E-1,2.955490878E0
3.414810417E0,1.946578436E0,-2.092395570E0,-5.026735083E-1,2.901718023E0
3.424753417E0,1.562870697E0,-2.274554025E0,-5.488290167E-1,2.813782884E0
3.434696417E0,1.138532410E0,-2.441486769E0,-5.085791230E-1,2.741489817E0
3.444639417E0,6.566218525E-1,-2.606801881E0,-4.782193561E-1,2.730432577E0
3.454582417E0,5.973866343E-2,-2.807685606E0,-4.347036463E-1,2.841766076E0
3.464524417E0,-5.556679201E-1,-3.012136425E0,-3.388508979E-1,3.081647711E0
3.474467417E0,-1.334036989E0,-3.283966464E0,-2.369771254E-1,3.552498921E0
3.484410417E0,-2.167710192E0,-3.561773235E0,-2.142887592E-1,4.175058769E0
3.494353417E0,-2.849519511E0,-3.695910408E0,-3.111000124E-1,4.677210537E0
3.504296417E0,-3.321710826E0,-3.727476310E0,-3.528251586E-1,5.005230069E0
3.514239417E0,-3.551831506E0,-3.684727024E0,-4.587340216E-1,5.138400256E0
3.524182417E0,-3.436432028E0,-3.587850940E0,-6.816683277E-1,5.014619742E0
3.534125417E0,-2.937715403E0,-3.502536555E0,-9.335290289E-1,4.665770093E0
3.544068417E0,-2.433447433E0,-3.594419117E0,-1.057813352E0,4.467715779E0
3.554011417E0,-2.083991513E0,-3.683654060E0,-1.067802150E0,4.364920307E0
3.563954417E0,-1.539036276E0,-3.311099884E0,-1.002661244E0,3.786468628E0
3.573897417E0,-8.983779073E-1,-2.515128942E0,-6.385709862E-1,2.746038850E0
3.583839417E0,-5.347220242E-1,-1.711941659E0,-1.513376355E-1,1.799881932E0
3.593782417E0,-4.452163553E-1,-9.875932619E-1,1.729109377E-1,1.097021534E0
3.603725417E0,-3.327346373E-1,-2.538849342E-1,3.769202918E-1,5.632395627E-1
3.613668417E0,-1.108959532E-1,5.576907644E-1,5.357604897E-1,7.812529702E-1
3.623611417E0,5.916388214E-2,1.236948943E0,7.082708200E-1,1.426601068E0
3.633554417E0,-5.238637447E-2,1.539961013E0,8.267150170E-1,1.748622879E0
3.643497417E0,-4.414232665E-1,1.428537057E0,7.646427298E-1,1.679360333E0
3.653440417E0,-8.469925761E-1,1.002475595E0,5.966949087E-1,1.441665203E0
3.663383417E0,-1.099136794E0,4.890128776E-1,4.387726871E-1,1.280529874E0
3.673326417E0,-8.936258751E-1,1.178959474E-1,2.705716817E-1,9.411034449E-1
3.683269417E0,-8.702165473E-1,-2.417323735E-1,3.726777714E-2,9.039359860E-1
3.693212417E0,-9.899569988E-1,-5.413969132E-1,-1.050463986E-1,1.133207935E0
3.703155417E0,-9.418554640E-1,-5.828694597E-1,-2.237776208E-1,1.130002188E0
3.713097417E0,-9.133292377E-1,-5.056905985E-1,-4.223642671E-1,1.126181536E0
3.723040417E0,-8.392011613E-1,-3.387938145E-1,-7.099724329E-1,1.150261141E0
3.732983417E0,-6.810982972E-1,-1.326692301E-1,-7.934765196E-1,1.054087758E0
3.742926417E0,-4.841120338E-1,5.846777111E-2,-7.444657427E-1,8.899506636E-1
3.752869417E0,-3.543734282E-1,1.463496682E-1,-5.646854961E-1,6.825455747E-1
3.762812417E0,-9.345780194E-2,2.051179862E-1,-3.885275996E-1,4.491786333E-1
3.772755417E0,4.727526480E-1,3.589096981E-1,-2.037591116E-1,6.275579759E-1
3.782698417E0,1.183196951E0,5.622796592E-1,5.741381049E-2,1.311262669E0
3.792641417E0,1.813661869E0,7.673961836E-1,3.137346947E-1,1.994165424E0
3.802584417E0,2.378815727E0,9.351259035E-1,5.293764631E-1,2.610261320E0
3.812527417E0,2.894549503E0,1.031615194E0,7.435939229E-1,3.161578507E0
3.822470417E0,3.432087547E0,1.103464903E0,9.624844408E-1,3.731385268E0
3.832413417E0,3.905397434E0,1.158542751E0,1.122404619E0,4.225416258E0
3.842356417E0,4.234378744E0,1.195405645E0,1.220160125E0,4.565933501E0
3.852298417E0,4.439068129E0,1.213905651E0,1.245373904E0,4.767583134E0
3.862241417E0,4.362843826E0,1.238452847E0,1.229277688E0,4.698861068E0
3.872184417E0,4.067918454E0,1.329438154E0,1.129487936E0,4.426184514E0
3.882127417E0,3.657832171E0,1.461324149E0,8.933493749E-1,4.038969864E0
3.892070417E0,3.208460784E0,1.614096399E0,5.140222961E-1,3.628187799E0
3.902013417E0,2.851927979E0,1.693536378E0,1.453056479E-1,3.320041023E0
3.911956417E0,2.554883577E0,1.662061986E0,-1.438596314E-1,3.051323603E0
3.921899417E0,2.293966781E0,1.562982086E0,-3.107198703E-1,2.793160116E0
3.931842417E0,2.051717806E0,1.457006273E0,-4.059440430E-1,2.548961318E0
3.941785417E0,1.850469507E0,1.348545392E0,-5.498382461E-1,2.354810856E0
3.951728417E0,1.756432246E0,1.273509243E0,-7.170393777E-1,2.284956345E0
3.961671417E0,1.685374542E0,1.164096144E0,-8.569235603E-1,2.220343480E0
3.971614417E0,1.557778941E0,1.062765651E0,-9.632147580E-1,2.117528921E0
3.981557417E0,1.404635686E0,8.862952209E-1,-9.768182322E-1,1.926835355E0
3.991499417E0,1.090013384E0,6.613022563E-1,-8.453190299E-1,1.529710467E0
4.001442417E0,6.301175934E-1,4.756473121E-1,-6.590408456E-1,1.028408179E0
4.011385417E0,9.455123127E-2,3.538293448E-1,-4.215778166E-1,5.584469501E-1
4.021328417E0,-4.815041757E-1,2.564056689E-1,-8.842861176E-2,5.526389034E-1
4.031271417E0,-1.051507130E0,2.336918673E-1,9.951493263E-2,1.081749673E0
4.041214417E0,-1.621283796E0,1.499495065E-1,1.615199769E-1,1.636195192E0
4.051157417E0,-2.033113135E0,7.816704065E-2,8.417534709E-2,2.036355714E0
4.061100417E0,-2.400819384E0,-6.623813599E-2,-6.682731606E-2,2.402662502E0
4.071043417E0,-2.800267829E0,-3.048396179E-1,-1.795902121E-1,2.822530735E0
4.080986417E0,-3.197394344E0,-5.636973166E-1,-2.896324718E-1,3.259596942E0
4.090929417E0,-3.689027066E0,-8.942670223E-1,-3.645703876E-1,3.813337878E0
4.100872417E0,-4.197551810E0,-1.129452561E0,-4.751155444E-1,4.372738166E0
4.110815417E0,-4.517358838E0,-1.195059490E0,-6.726555026E-1,4.720928244E0
4.120758417E0,-4.757847801E0,-1.193112659E0,-7.843051618E-1,4.967470997E0
4.130701417E0,-4.898717167E0,-1.191528356E0,-8.270290124E-1,5.108928135E0
4.140643417E0,-4.962414980E0,-1.188371152E0,-7.460491687E-1,5.156973705E0
4.150586417E0,-4.845489378E0,-1.002584938E0,-6.009908581E-1,4.984489330E0
4.160529417E0,-4.424198075E0,-7.200226271E-1,-4.846926989E-1,4.508535039E0
4.170472417E0,-3.880443857E0,-4.820272091E-1,-2.927397187E-1,3.921210438E0
4.180415417E0,-3.291107669E0,-1.192408070E-1,1.296503127E-2,3.293292600E0
4.190358417E0,-2.704729587E0,3.591596666E-1,2.573967719E-1,2.740585869E0
4.200301417E0,-2.020916428E0,9.219252294E-1,4.842289416E-1,2.273439466E0
4.210244417E0,-1.368175957E0,1.444612514E0,7.799799033E-1,2.137096024E0
4.220187417E0,-8.339725810E-1,1.829436488E0,1.225257143E0,2.354485760E0
4.230130417E0,-4.564313149E-1,2.097118219E0,1.741638206E0,2.763971420E0
4.240072917E0,-2.852950072E-1,2.189345767E0,2.230230376E0,3.138240854E0
4.250015917E0,-3.404646564E-1,2.170677362E0,2.635421956E0,3.431210468E0
4.259958917E0,-7.143993598E-1,1.973763604E0,2.807349976E0,3.505327816E0
4.269901917E0,-1.240319570E0,1.648979133E0,2.686477504E0,3.387430619E0
4.279844917E0,-1.610102166E0,1.365571900E0,2.044171974E0,2.938682470E0
4.289786917E0,-1.874462972E0,1.062959779E0,1.058353050E0,2.400751154E0
4.299729917E0,-2.113680750E0,6.880333874E-1,2.272023350E-1,2.234425465E0
4.309672917E0,-2.243565536E0,3.743191579E-1,-3.887158799E-1,2.307553072E0
4.319615917E0,-2.183138071E0,2.164718172E-1,-7.470496273E-1,2.317549358E0
4.329558917E0,-1.977921851E0,2.262711659E-1,-9.858434826E-1,2.221544702E0
4.339501917E0,-1.678109377E0,2.434643188E-1,-1.074652748E0,2.007536920E0
4.349444917E0,-1.378792162E0,2.019634134E-1,-1.031125490E0,1.733515740E0
4.359387917E0,-1.045475727E0,1.119727179E-1,-8.522475419E-1,1.353470819E0
4.369330917E0,-6.352514488E-1,9.409339428E-2,-4.438680605E-1,7.806515388E-1
4.379273917E0,-1.699545854E-1,2.433026433E-1,8.578797262E-2,3.089341574E-1
4.389216917E0,1.810081619E-1,4.353538567E-1,4.589163451E-1,6.579522376E-1
4.399159917E0,6.431492829E-1,5.864485404E-1,7.277982545E-1,1.134571809E0
4.409102917E0,1.219217554E0,6.678838822E-1,9.806529093E-1,1.701246735E0
4.419045917E0,1.824416653E0,7.111152712E-1,1.122423331E0,2.256992509E0
4.428988917E0,2.430819109E0,6.614867359E-1,1.127017488E0,2.759821491E0
4.438931917E0,2.888899924E0,5.397848359E-1,1.023460375E0,3.112006037E0
4.448874917E0,3.270802628E0,4.318730092E-1,8.880189800E-1,3.416612626E0
4.458817917E0,3.647408924E0,3.262497827E-1,7.488038651E-1,3.737745043E0
4.468760917E0,3.848822114E0,1.827117482E-1,5.168062285E-1,3.887660470E0
4.478702917E0,3.914524938E0,4.764018953E-2,2.823082495E-1,3.924980640E0
4.488645917E0,3.988596296E0,-4.000197172E-2,1.373919531E-1,3.991162377E0
4.498588917E0,4.003555813E0,-9.318356752E-2,-3.133756757E-2,4.004762710E0
4.508531917E0,3.889336302E0,-1.486882621E-1,-1.064164013E-1,3.893631919E0
4.518474917E0,3.721459817E0,-1.468624690E-1,-1.769602076E-1,3.728558256E0
4.528417917E0,3.676861934E0,-1.007662368E-1,-3.783710591E-1,3.697652252E0
4.538360917E0,3.505881162E0,-2.194544819E-1,-5.321486646E-1,3.552822145E0
4.548303917E0,3.256513787E0,-3.365587163E-1,-5.821499598E-1,3.325214638E0
4.558246917E0,3.081140002E0,-3.749424711E-1,-4.963158307E-1,3.143300013E0
4.568189917E0,2.921537327E0,-4.552130476E-1,-3.874494461E-1,2.982065785E0
4.578132917E0,2.784210790E0,-6.062700167E-1,-3.526332968E-1,2.871191965E0
4.588075917E0,2.634613870E0,-7.926251650E-1,-3.638926953E-1,2.775223017E0
4.598018917E0,2.523621438E0,-9.794501370E-1,-2.319931050E-1,2.716948386E0
4.607961917E0,2.149799001E0,-1.259273027E0,-3.767419517E-2,2.491751121E0
4.617904917E0,1.706856043E0,-1.468491666E0,6.946141362E-2,2.252698429E0
4.627847917E0,1.411231345E0,-1.716733745E0,1.190095496E-1,2.225513858E0
4.637790917E0,9.240594631E-1,-2.024820029E0,2.709856645E-1,2.242145239E0
4.647733917E0,1.650651437E-1,-2.314002265E0,4.820040395E-1,2.369426276E0
4.657676917E0,-6.624468488E-1,-2.468067627E0,6.360975409E-1,2.633403448E0
4.667618917E0,-1.463815355E0,-2.529533266E0,6.510395157E-1,2.994185430E0
4.677561917E0,-2.288994309E0,-2.494677136E0,6.348491603E-1,3.444697725E0
4.687504917E0,-3.149484597E0,-2.454132543E0,6.875296497E-1,4.051507964E0
4.697447917E0,-3.819377291E0,-2.383708970E0,6.014901737E-1,4.542191296E0
4.707390917E0,-4.203560409E0,-2.334525992E0,3.839082627E-1,4.823620764E0
4.717333917E0,-4.281746453E0,-2.358002855E0,1.137868166E-1,4.889425078E0
4.727276917E0,-4.101704251E0,-2.438338921E0,-6.990349967E-2,4.772249046E0
4.737219917E0,-3.970156517E0,-2.780327362E0,-1.824845839E-1,4.850326136E0
4.747162917E0,-3.597132225E0,-3.089614372E0,-1.687552850E-1,4.744845156E0
4.757105917E0,-2.849528282E0,-2.929269393E0,-8.171714108E-2,4.087432971E0
4.767048917E0,-2.071455667E0,-2.396564366E0,-1.126988690E-2,3.167739943E0
4.776991917E0,-1.585804646E0,-1.670986884E0,1.310513055E-1,2.307411534E0
4.786934917E0,-1.412510716E0,-9.686669943E-1,3.904232669E-1,1.756682269E0
4.796877917E0,-1.289114000E0,-1.670382866E-1,5.913183574E-1,1.428066558E0
4.806820917E0,-9.147050875E-1,6.985820568E-1,7.295068109E-1,1.362674750E0
4.816763917E0,-4.314742291E-1,1.501892131E0,8.446840954E-1,1.776328012E0
4.826706917E0,2.583709180E-2,2.100731506E0,9.533089900E-1,2.307062732E0
4.836649917E0,2.906381929E-1,2.357073148E0,1.056458625E0,2.599301678E0
4.846592917E0,2.580247629E-1,2.213896764E0,1.125324792E0,2.496852328E0
4.856535917E0,3.741984129E-2,1.801918321E0,1.206402284E0,2.168805282E0
4.866478917E0,-1.992216539E-1,1.340024537E0,1.237252706E0,1.834706867E0
4.876421917E0,-4.063183379E-1,9.020218921E-1,1.009759764E0,1.413631093E0
4.886364917E0,-8.278634101E-1,3.913143826E-1,5.315971991E-1,1.058810821E0
4.896307917E0,-1.384120730E0,-2.041110957E-1,-6.944270253E-2,1.400811844E0
4.906249917E0,-1.634123697E0,-5.829080513E-1,-5.740036555E-1,1.827463338E0
4.916192917E0,-1.624329026E0,-6.069982874E-1,-1.012505032E0,2.007998542E0
4.926135917E0,-1.579242316E0,-5.326170266E-1,-1.414499938E0,2.185977416E0
4.936078917E0,-1.233895819E0,-3.325255993E-1,-1.821098943E0,2.224741227E0
4.946021917E0,-7.705799925E-1,-1.045078701E-1,-2.068157837E0,2.209523084E0
4.955964917E0,-3.193538690E-1,3.529379368E-2,-2.064121504E0,2.088978250E0
4.965907917E0,2.319520283E-1,1.978639305E-2,-1.865591576E0,1.880059886E0
4.975850917E0,7.472577882E-1,-2.693841487E-2,-1.558832610E0,1.728895308E0
4.985793917E0,1.472754579E0,1.835356209E-1,-1.134191437E0,1.867908346E0
4.995736917E0,2.279021882E0,3.241351372E-1,-7.367890064E-1,2.416994491E0
5.005679917E0,2.887517057E0,3.182007980E-1,-3.793130455E-1,2.929656104E0
5.015622917E0,3.425545682E0,2.832671928E-1,-9.962719917E-2,3.438681302E0
5.025565917E0,3.861308259E0,2.612389773E-1,9.477634907E-2,3.871295627E0
5.035508917E0,4.175107858E0,2.688336334E-1,1.499519185E-1,4.186440340E0
5.045451917E0,4.378799123E0,2.995999280E-1,1.711303874E-1,4.392371511E0
5.055394917E0,4.376385977E0,2.817056939E-1,1.681103736E-1,4.388664195E0
5.065337917E0,4.313254759E0,2.558189008E-1,1.314880925E-1,4.322834608E0
5.075280917E0,4.229775816E0,2.463958204E-1,9.522322252E-2,4.238016259E0
5.085223917E0,4.124105519E0,2.561007366E-1,1.020479465E-1,4.133309534E0
5.095166917E0,3.911827617E0,2.173050454E-1,1.686839124E-1,3.921488372E0
5.105109917E0,3.491162551E0,1.495051181E-1,2.652986991E-1,3.504418802E0
5.115052917E0,3.061932483E0,1.126340380E-1,2.769637482E-1,3.076495714E0
5.124995917E0,2.811776319E0,1.581128043E-1,2.400322956E-1,2.826429059E0
5.134938917E0,2.556419055E0,1.802968481E-1,1.391894603E-1,2.566546132E0
5.144881917E0,2.202460780E0,2.291035572E-1,-9.957398951E-2,2.216582258E0
5.154824917E0,1.947146786E0,2.420051461E-1,-4.531100965E-1,2.013766584E0
5.164767917E0,1.765041686E0,2.481803906E-1,-8.949448608E-1,1.994465333E0
5.174710917E0,1.600785213E0,2.469273323E-1,-1.434175234E0,2.163410504E0
5.184653917E0,1.399828105E0,2.323984632E-1,-1.916322604E0,2.384495773E0
5.194596917E0,1.212789710E0,7.572641283E-2,-2.206911680E0,2.519335732E0
5.204539917E0,1.018924690E0,-4.833805472E-2,-2.365220951E0,2.575813316E0
5.214482917E0,6.947059375E-1,-1.628244907E-1,-2.323634968E0,2.430721626E0
5.224425917E0,3.445015740E-1,-2.058868951E-1,-2.168739887E0,2.205561934E0
5.234368917E0,-1.676747561E-2,-2.180760008E-1,-2.005491035E0,2.017382606E0
5.244311667E0,-3.951998574E-1,-2.544667321E-1,-1.875135401E0,1.933150025E0
5.254254667E0,-7.798647863E-1,-3.842626405E-1,-1.764173959E0,1.966762980E0
5.264197667E0,-1.325756747E0,-5.789278516E-1,-1.563590489E0,2.130165164E0
5.274140667E0,-1.935450600E0,-7.456351858E-1,-1.410364788E0,2.508200489E0
5.284083667E0,-2.609762034E0,-8.867106655E-1,-1.211408086E0,3.010751273E0
5.294026667E0,-3.195029145E0,-9.562375680E-1,-1.019093674E0,3.487284537E0
5.303969667E0,-3.792895251E0,-9.406810507E-1,-8.231359363E-1,3.993555808E0
5.313912667E0,-4.343046908E0,-8.174641371E-1,-6.495883099E-1,4.466796283E0
5.323855667E0,-4.763965743E0,-6.287768269E-1,-4.393084017E-1,4.825320898E0
5.333798667E0,-5.115917255E0,-4.348074344E-1,-2.532926843E-1,5.140605416E0
5.343741667E0,-5.450202574E0,-2.290939093E-1,-1.437000755E-1,5.456907716E0
5.353684667E0,-5.606372348E0,-9.477167130E-3,-1.100305653E-1,5.607459982E0
5.363627667E0,-5.505419000E0,3.351416436E-1,-3.915412545E-2,5.515749390E0
5.373570667E0,-5.083887962E0,8.032030705E-1,1.063995174E-1,5.148045535E0
5.383513667E0,-4.510718740E0,1.332233123E0,2.958059621E-1,4.712635124E0
5.393456667E0,-3.768974876E0,1.892864159E0,4.472856849E-1,4.241246377E0
5.403399667E0,-2.984179133E0,2.345394797E0,6.489812958E-1,3.850633529E0
5.413342667E0,-2.269350003E0,2.704943888E0,9.476389450E-1,3.655774944E0
5.423285667E0,-1.743711044E0,2.919760943E0,1.305345871E0,3.642727002E0
5.433228667E0,-1.397883321E0,2.962100924E0,1.682180209E0,3.682098575E0
5.443171667E0,-1.128398015E0,2.919262760E0,2.039135182E0,3.735431627E0
5.453114667E0,-1.110847013E0,2.666385009E0,2.295613942E0,3.689638664E0
5.463057667E0,-1.436259182E0,2.158195018E0,2.399458591E0,3.532428018E0
5.473000667E0,-1.910836161E0,1.552374360E0,2.428452741E0,3.458112737E0
5.482943667E0,-2.168969098E0,1.062084158E0,2.260864524E0,3.308165368E0
5.492886667E0,-2.164915808E0,7.285063523E-1,1.904100169E0,2.973748378E0
5.502829667E0,-1.927349868E0,5.867803699E-1,1.501258585E0,2.512521852E0
5.512772667E0,-1.622916924E0,6.642065683E-1,1.129325896E0,2.085762854E0
5.522715667E0,-1.416550557E0,8.117587164E-1,8.131505730E-1,1.823946696E0
5.532658667E0,-1.278291389E0,9.363815930E-1,4.899335217E-1,1.658575961E0
5.542601667E0,-1.184071695E0,1.125300161E0,2.640795547E-1,1.654709715E0
5.552544667E0,-1.089757276E0,1.313414444E0,2.681818881E-1,1.727585004E0
5.562487667E0,-9.739812362E-1,1.457088134E0,4.681632415E-1,1.814089882E0
5.572430667E0,-7.947716779E-1,1.562128393E0,5.995869416E-1,1.852406984E0
5.582373667E0,-5.898144901E-1,1.751522047E0,6.726134026E-1,1.966753518E0
5.592316667E0,-1.043780619E-1,1.990904717E0,7.905586859E-1,2.144663005E0
5.602259667E0,3.141007304E-2,1.990200127E0,8.289339622E-1,2.156157381E0
5.612202667E0,-1.003206789E-1,1.817619849E0,6.962028978E-1,1.948975277E0
5.622145667E0,1.627291811E-1,1.807220284E0,7.646631950E-1,1.969069766E0
5.632088667E0,5.145146316E-1,1.871044397E0,9.325093476E-1,2.152929661E0
5.642031667E0,7.604485220E-1,1.802467667E0,1.077852271E0,2.233592882E0
5.651974667E0,1.037621162E0,1.656293708E0,1.133832345E0,2.259544713E0
5.661917667E0,1.301704810E0,1.464747694E0,1.092335898E0,2.243461373E0
5.671860667E0,1.453213769E0,1.179925142E0,9.609805369E-1,2.104171378E0
5.681803667E0,1.611632967E0,8.581309372E-1,8.957858366E-1,2.033760505E0
5.691746667E0,1.884235423E0,5.371518347E-1,9.303534061E-1,2.168970420E0
5.701689667E0,2.047264566E0,2.421951807E-1,9.368935168E-1,2.264446990E0
5.711632667E0,2.323848976E0,5.913581550E-2,9.185272662E-1,2.499492638E0
5.721575667E0,2.485485313E0,-1.764739385E-1,9.393746366E-1,2.662931655E0
5.731518667E0,2.367179768E0,-4.378292754E-1,8.473176813E-1,2.552093608E0
5.741461667E0,2.285680692E0,-6.782625438E-1,6.094393538E-1,2.460852013E0
5.751404667E0,2.365643120E0,-9.594301477E-1,3.800842202E-1,2.580937348E0
5.761347667E0,2.468248306E0,-1.251898811E0,1.754772806E-1,2.773137683E0
5.771290667E0,2.565364126E0,-1.489883120E0,1.734868884E-2,2.966672511E0
5.781233667E0,2.579686296E0,-1.759128689E0,-1.211279958E-1,3.124737929E0
5.791176667E0,2.473357018E0,-2.053357950E0,-1.841030931E-1,3.219886296E0
5.801119667E0,2.292209108E0,-2.320189935E0,-1.271785484E-1,3.263997291E0
5.811062667E0,1.830628735E0,-2.610452883E0,2.984418869E-3,3.188365526E0
5.821005667E0,1.308975822E0,-2.868425313E0,1.675939914E-1,3.157430795E0
5.830948667E0,9.341675448E-1,-3.038529880E0,3.082017669E-1,3.193794164E0
5.840891667E0,4.819286835E-1,-3.340995820E0,2.853686821E-1,3.387616214E0
5.850834667E0,-3.227136791E-1,-3.727172547E0,1.440112205E-1,3.743888159E0
5.860777667E0,-5.654853952E-1,-3.997024473E0,-6.393469848E-2,4.037334023E0
5.870720667E0,5.903407395E-2,-3.943387964E0,4.751440130E-2,3.944116032E0
5.880663667E0,-3.561480582E-1,-3.945297664E0,-2.041694947E-1,3.966598074E0
5.890606667E0,-7.257026124E-1,-4.038317510E0,-4.111965968E-1,4.123558564E0
5.900549667E0,-9.713225073E-1,-4.227931896E0,-3.306916932E-1,4.350658861E0
5.910492667E0,-1.364070042E0,-4.481951316E0,-4.118048169E-1,4.702994566E0
5.920435667E0,-1.617012990E0,-4.624713133E0,-6.823431695E-1,4.946543720E0
5.930378667E0,-1.596841850E0,-4.641443479E0,-9.645964551E-1,5.002334233E0
5.940321667E0,-1.362149232E0,-4.428973496E0,-1.101489202E0,4.762828490E0
5.950264667E0,-1.000877259E0,-3.986816404E0,-1.085859522E0,4.251535161E0
5.960207667E0,-5.818301171E-1,-3.375850781E0,-9.142051506E-1,3.545513480E0
5.970150667E0,6.366857708E-2,-2.662211559E0,-6.172643901E-1,2.733576302E0
5.980093667E0,6.714544845E-1,-1.915945458E0,-2.152892178E-1,2.041579676E0
5.990036667E0,1.050881478E0,-1.196118713E0,1.514808923E-1,1.599374352E0
5.999979667E0,1.161720713E0,-6.115361653E-1,5.162646302E-1,1.410709277E0
6.009922667E0,1.151964049E0,-2.192075832E-1,7.538159522E-1,1.394027125E0
6.019865667E0,1.055300218E0,-4.037882477E-2,7.973812902E-1,1.323293589E0
6.029808667E0,9.870409924E-1,-1.834473279E-1,7.596801978E-1,1.258974521E0
6.039751667E0,9.599835867E-1,-5.181125696E-1,6.428135797E-1,1.266182617E0
6.049694667E0,1.033304747E0,-8.820869797E-1,5.025904047E-1,1.448583189E0
6.059637667E0,9.559688884E-1,-1.218830614E0,4.378160461E-1,1.609691732E0
6.069580667E0,7.563958168E-1,-1.581357546E0,2.432886100E-1,1.769750171E0
6.079523667E0,5.590201288E-1,-1.849132103E0,1.160385063E-1,1.935266899E0
6.089467667E0,2.018681037E-1,-1.886509698E0,-7.045492865E-2,1.898587229E0
6.099410667E0,-2.052945721E-1,-1.854866613E0,-3.459809196E-1,1.897993364E0
6.109353667E0,-4.855241364E-1,-1.728495419E0,-5.227316872E-1,1.869940779E0
6.119296667E0,-4.997311163E-1,-1.444251741E0,-5.958278032E-1,1.640306390E0
6.129239667E0,-4.121982980E-1,-1.091729541E0,-6.499963725E-1,1.335767986E0
6.139182667E0,-2.288483262E-1,-7.393964991E-1,-6.437527156E-1,1.006725533E0
6.149125667E0,1.621386123E-1,-3.936512223E-1,-4.478417552E-1,6.179097443E-1
6.159068667E0,5.437933946E-1,-1.056574327E-1,-1.067058384E-1,5.641461557E-1
6.169011667E0,9.672803271E-1,1.523117816E-1,8.019222379E-2,9.824769222E-1
6.178954667E0,1.378142536E0,3.207645097E-1,1.283937277E-1,1.420792620E0
6.188897667E0,1.794710459E0,4.495450491E-1,2.272800482E-1,1.864063465E0
6.198840667E0,2.259865819E0,6.703645635E-1,3.996765222E-1,2.390841586E0
6.208783667E0,2.653081132E0,8.471390489E-1,6.392714095E-1,2.857473008E0
6.218726667E0,2.955856390E0,9.818188441E-1,9.074504471E-1,3.244151901E0
6.228669667E0,3.137688425E0,1.096920992E0,1.107471415E0,3.503543527E0
6.238612417E0,3.130015708E0,1.171829379E0,1.153792546E0,3.535734671E0
6.248555417E0,3.000139693E0,1.264575575E0,1.002616879E0,3.406645002E0
6.258498417E0,2.727403920E0,1.355866691E0,8.814256597E-1,3.170807125E0
6.268441417E0,2.336196542E0,1.495176896E0,7.792455661E-1,2.881074780E0
6.278384417E0,1.983437530E0,1.754666972E0,5.287648078E-1,2.700457894E0
6.288327417E0,1.624080520E0,1.950594597E0,1.896421605E-1,2.545274241E0
6.298270417E0,1.263999624E0,1.984705499E0,-2.115154979E-1,2.362517677E0
6.308213417E0,1.025242606E0,2.067247426E0,-6.730092591E-1,2.403658833E0
6.318156417E0,7.889297247E-1,2.111545347E0,-1.118380566E0,2.516308596E0
6.328099417E0,6.032420361E-1,2.049557552E0,-1.483352072E0,2.600946075E0
6.338042417E0,5.434811532E-1,1.977568387E0,-1.713968012E0,2.672795322E0
6.347985417E0,5.418924648E-1,1.894521260E0,-1.831223981E0,2.690025933E0
6.357928417E0,4.563026762E-1,1.658196099E0,-1.781226779E0,2.476003892E0
6.367871417E0,1.812578380E-1,1.349752258E0,-1.556266267E0,2.068006348E0
6.377814417E0,-6.187289715E-2,1.070327563E0,-1.346886684E0,1.721491529E0
6.387757417E0,-3.184247464E-1,7.744862249E-1,-1.081006406E0,1.367405602E0
6.397700417E0,-5.452791721E-1,5.980254427E-1,-8.867385129E-1,1.200528632E0
6.407643417E0,-7.487336254E-1,4.587365797E-1,-7.695603112E-1,1.167589125E0
6.417586417E0,-1.103515774E0,2.407477024E-1,-7.850400107E-1,1.375497851E0
6.427530417E0,-1.481720114E0,-5.377801180E-2,-6.614848356E-1,1.623560519E0
6.437473417E0,-1.807578426E0,-3.376767039E-1,-5.007602993E-1,1.905813789E0
6.447416417E0,-2.250176983E0,-5.624293479E-1,-2.802371657E-1,2.336269696E0
6.457359417E0,-2.903459491E0,-7.247682273E-1,-1.864111353E-1,2.998352065E0
6.467302417E0,-3.412815709E0,-7.891916800E-1,-2.886013153E-1,3.514743986E0
6.477245417E0,-3.742245499E0,-7.376338559E-1,-4.826490605E-1,3.844665811E0
6.487188417E0,-4.048905648E0,-6.281529289E-1,-6.964934313E-1,4.156117918E0
6.497131417E0,-4.291442306E0,-4.912906605E-1,-6.487285499E-1,4.367916244E0
6.507074417E0,-4.440133492E0,-3.652653292E-1,-4.865099770E-1,4.481617581E0
6.517017417E0,-4.470046093E0,-2.917789847E-1,-3.547355171E-1,4.493582572E0
6.526960417E0,-4.333780825E0,-1.855017471E-1,-1.246158600E-1,4.339538714E0
6.536903417E0,-4.362014691E0,-1.318319088E-1,1.343374407E-1,4.366073563E0
6.546846417E0,-4.197393351E0,2.281279492E-1,3.400565207E-1,4.217320445E0
6.556789417E0,-3.740555654E0,1.039300190E0,4.358127900E-1,3.906639768E0
6.566732417E0,-3.317835292E0,1.828651499E0,6.595554006E-1,3.845388232E0
6.576675417E0,-2.904351776E0,2.518010158E0,9.485510375E-1,3.959215006E0
6.586618417E0,-2.560020940E0,3.094597369E0,1.192232069E0,4.189469823E0
6.596561417E0,-2.270822917E0,3.502686244E0,1.446906231E0,4.418029570E0
6.606504417E0,-2.023772793E0,3.746889943E0,1.728348069E0,4.595870713E0
6.616447417E0,-1.785100560E0,3.773319942E0,1.937581326E0,4.602037461E0
6.626390417E0,-1.587969870E0,3.648506446E0,2.059510975E0,4.480494733E0
6.636333417E0,-1.643008541E0,3.451047143E0,1.985058670E0,4.306931782E0
6.646276417E0,-2.012985265E0,3.103344219E0,1.812041606E0,4.119022918E0
6.656219417E0,-2.282123830E0,2.663460816E0,1.648746414E0,3.875626070E0
6.666162417E0,-2.534194958E0,2.265694324E0,1.486580905E0,3.710180271E0
6.676106417E0,-2.792610900E0,2.002548569E0,1.130410554E0,3.617555035E0
6.686049417E0,-2.928654558E0,1.819683039E0,7.688503131E-1,3.532618673E0
6.695992417E0,-3.120498195E0,1.740551793E0,3.537399555E-1,3.590565622E0
6.705935417E0,-3.386074052E0,1.697185918E0,-3.508702151E-2,3.787765651E0
6.715878417E0,-3.628803669E0,1.627525114E0,-3.488472978E-1,3.992336221E0
6.725821417E0,-3.928591585E0,1.603241043E0,-3.848666579E-1,4.260555835E0
6.735764417E0,-4.033930929E0,1.753477356E0,-2.624778561E-1,4.406379035E0
6.745707417E0,-3.819242805E0,1.937111210E0,-2.656249738E-1,4.290637723E0
6.755650417E0,-3.455423200E0,2.032146883E0,-4.507081334E-1,4.033944504E0
6.765593417E0,-3.065475311E0,1.949928306E0,-6.142816523E-1,3.684657546E0
6.775536417E0,-2.573588820E0,1.859527429E0,-6.027497736E-1,3.231796553E0
6.785479417E0,-2.031510998E0,1.783191151E0,-3.323025280E-1,2.723459672E0
6.795422417E0,-1.486560439E0,1.587819012E0,-1.266870169E-1,2.178779648E0
6.805365417E0,-8.642781150E-1,1.325453861E0,7.333504781E-3,1.582358486E0
6.815308417E0,-2.549695927E-1,1.018846922E0,7.218387723E-2,1.052743585E0
6.825251417E0,3.302343678E-1,5.943960759E-1,1.126408354E-1,6.892382684E-1
6.835194417E0,8.628361917E-1,1.934147841E-1,1.804170084E-1,9.024665474E-1
6.845137417E0,1.339382513E0,-1.796834752E-1,3.161097606E-1,1.387860601E0
6.855080417E0,1.860538412E0,-5.261926907E-1,4.538174634E-1,1.986059471E0
6.865023417E0,2.342065977E0,-8.253037915E-1,5.827990007E-1,2.550696780E0
6.874967417E0,2.774297420E0,-1.093236661E0,6.340235335E-1,3.048586298E0
6.884910417E0,3.176415119E0,-1.355952207E0,6.617901333E-1,3.516558769E0
6.894853417E0,3.504349777E0,-1.633885716E0,6.994041753E-1,3.929276789E0
6.904796417E0,3.792731529E0,-1.929006530E0,7.361749025E-1,4.318313575E0
6.914739417E0,4.012116137E0,-2.183691802E0,6.916431659E-1,4.619951953E0
6.924682417E0,4.149954890E0,-2.407812070E0,7.328396507E-1,4.853528459E0
6.934625417E0,4.207880917E0,-2.603342669E0,7.589744389E-1,5.005966146E0
6.944568417E0,4.169534876E0,-2.796859779E0,7.709390116E-1,5.079546502E0
6.954511417E0,3.946779349E0,-3.028280003E0,7.325059940E-1,5.028330939E0
6.964454417E0,3.628697834E0,-3.271837000E0,6.162826426E-1,4.924649188E0
6.974397417E0,3.324054975E0,-3.641476047E0,4.933597708E-1,4.955107783E0
6.984340417E0,3.162126862E0,-3.967364179E0,3.547411450E-1,5.085751282E0
6.994283417E0,3.013914564E0,-4.224171552E0,3.064307915E-1,5.198192583E0
7.004226417E0,2.839871020E0,-4.536752883E0,2.738834350E-1,5.359291583E0
7.014169417E0,2.603744080E0,-4.814945570E0,2.753744750E-1,5.480786000E0
7.024112417E0,2.296748301E0,-5.058105834E0,2.701086187E-1,5.561694530E0
7.034055417E0,1.887418063E0,-5.272044345E0,2.398212111E-1,5.604847253E0
7.043998417E0,1.403390229E0,-5.374573517E0,1.615071130E-1,5.557124182E0
7.053942417E0,9.109570223E-1,-5.341006406E0,5.719271265E-2,5.418437333E0
7.063885417E0,4.292160344E-1,-5.295922619E0,-3.152292430E-2,5.313380890E0
7.073828417E0,-3.041955471E-2,-5.236748212E0,-7.832981251E-2,5.237422338E0
7.083771417E0,-4.179186291E-1,-5.138180528E0,-1.507563492E-1,5.157352286E0
7.093714417E0,-7.565367347E-1,-5.201243334E0,-3.888521200E-1,5.270340219E0
7.103657417E0,-9.561080521E-1,-5.535190099E0,-5.868242605E-1,5.647728282E0
7.113600417E0,-7.058951694E-1,-5.678605927E0,-6.797505140E-1,5.762544058E0
7.123543417E0,-1.135517585E-1,-5.387733845E0,-5.805034204E-1,5.420106476E0
7.133486417E0,4.353129262E-1,-4.793673692E0,-2.007232189E-1,4.817581823E0
7.143429417E0,7.554555845E-1,-4.093983295E0,2.523400998E-1,4.170741887E0
7.153372417E0,7.675558126E-1,-3.408103437E0,5.938648564E-1,3.543583840E0
7.163315417E0,7.376391184E-1,-2.702087231E0,8.079274014E-1,2.915155838E0
7.173258417E0,8.048633873E-1,-1.892829953E0,9.419642222E-1,2.262279138E0
7.183201417E0,9.201576161E-1,-1.106109599E0,1.051199566E0,1.781906005E0
7.193144417E0,8.820770395E-1,-4.864164215E-1,1.262314457E0,1.614960875E0
7.203087417E0,6.347304618E-1,-2.068855995E-1,1.435221886E0,1.582891744E0
7.213031417E0,3.437841207E-1,-1.688004912E-1,1.527498550E0,1.574780286E0
7.222974417E0,1.199217153E-1,-3.445802191E-1,1.554523212E0,1.596765218E0
7.232917417E0,-1.174927819E-1,-6.988504440E-1,1.471895915E0,1.633607689E0
7.242859917E0,-4.890429908E-1,-1.172048065E0,1.188235497E0,1.739184668E0
7.252802917E0,-8.927195567E-1,-1.648143566E0,8.392062776E-1,2.053677822E0
7.262745917E0,-1.218111845E0,-1.847464038E0,6.661376113E-1,2.310986620E0
7.272688917E0,-1.489813246E0,-1.698797118E0,4.855913794E-1,2.311115346E0
7.282631917E0,-1.657874503E0,-1.352294042E0,2.863018247E-1,2.158521665E0
7.292574917E0,-1.789005915E0,-9.184639701E-1,1.353805840E-1,2.015551074E0
7.302517917E0,-1.943102267E0,-4.525475943E-1,-5.654659532E-2,1.995906627E0
7.312460917E0,-2.009771050E0,3.395741254E-2,-3.546692973E-1,2.041108300E0
7.322403917E0,-1.978815306E0,4.608114642E-1,-6.255368847E-1,2.125877140E0
7.332346917E0,-1.822514554E0,9.491150746E-1,-7.486856782E-1,2.186986275E0
7.342289917E0,-1.381061466E0,1.340012258E0,-8.788857023E-1,2.115514997E0
7.352233917E0,-8.430386889E-1,1.477158994E0,-1.015016923E0,1.980649458E0
7.362176917E0,-2.660301858E-1,1.683427712E0,-8.339637371E-1,1.897418361E0
7.372119917E0,5.077394629E-1,2.100628595E0,-3.108368877E-1,2.183359665E0
7.382062917E0,1.099704559E0,2.412113574E0,7.905369781E-2,2.652148468E0
7.392005917E0,1.370344689E0,2.621405595E0,5.895747542E-2,2.958561787E0
7.401948917E0,1.297658536E0,2.592685533E0,-1.681635833E-1,2.904171989E0
7.411891917E0,1.181021787E0,2.542114427E0,-2.634305137E-1,2.815413621E0
7.421834917E0,1.053191128E0,2.718306237E0,-2.630019128E-1,2.927041229E0
7.431777917E0,1.082924219E0,2.859813534E0,-1.796557009E-1,3.063255537E0
7.441720917E0,9.824433267E-1,3.049363601E0,-6.289687617E-1,3.264875949E0
7.451663917E0,4.088992989E-1,3.436593119E0,-1.707409044E0,3.859095301E0
7.461606917E0,7.523881352E-1,3.763568248E0,-1.722105728E0,4.206683017E0
7.471549917E0,1.196382422E0,4.012416683E0,-2.544006586E-1,4.194703594E0
7.481492917E0,6.051306868E-1,3.719068598E0,-1.160554924E0,3.942656734E0
7.491436917E0,2.649887967E-1,3.608792742E0,-1.852111990E0,4.064962847E0
7.501379917E0,1.626642770E-1,3.652137860E0,-1.894103769E0,4.117304908E0
7.511322917E0,2.675136244E-1,3.682634305E0,-1.812326657E0,4.113135894E0
7.521265917E0,3.997150773E-1,3.519464829E0,-1.579770466E0,3.878411988E0
7.531208917E0,5.188573587E-1,3.176940199E0,-1.258449447E0,3.456277911E0
7.541151917E0,5.806384546E-1,2.678548387E0,-8.628141184E-1,2.873362260E0
7.551094917E0,5.554018718E-1,2.096818842E0,-3.416463786E-1,2.195869473E0
7.561037917E0,4.147956312E-1,1.557293330E0,-1.111906528E-2,1.611626993E0
7.570980917E0,1.132412714E-1,1.070473158E0,-5.008564129E-2,1.077610755E0
7.580923917E0,-4.417770231E-1,5.232380927E-1,-1.635472065E-1,7.040544926E-1
7.590866917E0,-1.076219802E0,2.468431324E-2,-1.783086486E-1,1.091170175E0
7.600809917E0,-1.711676488E0,-3.370615768E-1,-6.164544046E-2,1.745636579E0
7.610752917E0,-2.399605502E0,-5.835804811E-1,1.971258657E-1,2.477404156E0
7.620696917E0,-2.972142640E0,-6.918568817E-1,4.615544991E-1,3.086313395E0
7.630639917E0,-3.353747721E0,-6.945565411E-1,6.387042296E-1,3.483959767E0
7.640582917E0,-3.878345291E0,-6.695857143E-1,7.537581378E-1,4.007250748E0
7.650525917E0,-4.475206261E0,-5.981189981E-1,8.436234105E-1,4.593138129E0
7.660468917E0,-5.075674378E0,-5.184217411E-1,8.148317206E-1,5.166738064E0
7.670411917E0,-5.576399521E0,-5.425613862E-1,3.977281934E-1,5.616831152E0
7.680354917E0,-5.840090235E0,-6.563587278E-1,-1.022841740E-1,5.877748105E0
7.690297917E0,-6.017864302E0,-8.475235033E-1,-5.077615361E-1,6.098426734E0
7.700240917E0,-5.807453417E0,-9.445843595E-1,-7.375372307E-1,5.929815846E0
7.710183917E0,-5.348807176E0,-7.162003022E-1,-6.109346330E-1,5.431014841E0
7.720126917E0,-4.536268149E0,6.219332457E-2,-2.758769701E-1,4.545074788E0
7.730069917E0,-3.651196750E0,8.473568577E-1,1.933627439E-1,3.753217354E0
7.740012917E0,-3.037140289E0,1.563101077E0,6.899643572E-1,3.484760670E0
7.749956917E0,-2.437503061E0,2.420315171E0,1.278722767E0,3.665307438E0
7.759899917E0,-2.008365964E0,3.066852331E0,1.856075233E0,4.109030583E0
7.769842917E0,-1.817153242E0,3.294030107E0,2.286887118E0,4.402559817E0
7.779785917E0,-1.822899300E0,3.250468935E0,2.640763387E0,4.567509324E0
7.789728917E0,-1.847291545E0,3.111116338E0,2.736705671E0,4.536638497E0
7.799671917E0,-1.726489824E0,3.006784469E0,2.597123278E0,4.332039851E0
7.809614917E0,-1.625234175E0,2.722232643E0,2.366732310E0,3.956432549E0
7.819557917E0,-1.640679595E0,2.274776219E0,2.027191075E0,3.460627116E0
7.829500917E0,-1.705050423E0,1.777232546E0,1.579576046E0,2.925886695E0
7.839443917E0,-1.936966199E0,1.227453357E0,1.107704135E0,2.546662178E0
7.849386917E0,-2.109605241E0,7.625272071E-1,6.551628260E-1,2.336904008E0
7.859329917E0,-2.355720980E0,5.391185457E-1,2.670522791E-1,2.431334420E0
7.869273917E0,-2.576707724E0,4.954901308E-1,-1.081011303E-1,2.626141470E0
7.879216917E0,-2.707926260E0,6.155334681E-1,-3.798421454E-1,2.802860349E0
7.889159917E0,-2.791368366E0,7.595261237E-1,-6.352064252E-1,2.961773876E0
7.899102917E0,-2.797575771E0,9.044549185E-1,-8.645225286E-1,3.064615489E0
7.909045917E0,-2.711531653E0,1.026776623E0,-9.646433790E-1,3.055685028E0
7.918988917E0,-2.527972351E0,1.150729702E0,-8.417207996E-1,2.902295119E0
7.928931917E0,-2.242011931E0,1.269925777E0,-5.787387673E-1,2.640883856E0
7.938874917E0,-1.930871061E0,1.175957513E0,-2.691836623E-1,2.276751847E0
7.948817917E0,-1.578366988E0,9.635170591E-1,3.272686601E-2,1.849507642E0
7.958760917E0,-1.108863637E0,7.857839227E-1,3.633617681E-1,1.406793060E0
7.968703917E0,-5.926632535E-1,5.932649320E-1,6.386855185E-1,1.054102558E0
7.978646917E0,-2.123808128E-1,2.708655408E-1,8.371001836E-1,9.051024628E-1
7.988590917E0,2.501070482E-1,-7.697859406E-4,9.239576485E-1,9.572104598E-1
7.998533917E0,8.309741288E-1,-2.416855958E-1,9.645664881E-1,1.295885196E0
8.008476917E0,1.423221061E0,-5.060844085E-1,9.679778268E-1,1.794062621E0
8.018419917E0,1.950963264E0,-7.331943575E-1,9.070949364E-1,2.273027242E0
8.028362917E0,2.485163131E0,-9.295556997E-1,8.941186492E-1,2.799921025E0
8.038305917E0,2.961703606E0,-1.125765891E0,8.883341449E-1,3.290619188E0
8.048248917E0,3.388788330E0,-1.325486605E0,8.803404164E-1,3.743768200E0
8.058191917E0,3.757680395E0,-1.501021919E0,8.378523548E-1,4.132217966E0
8.068134917E0,4.055848632E0,-1.660902191E0,8.231406140E-1,4.459379406E0
8.078077917E0,4.299999121E0,-1.819581444E0,8.145243032E-1,4.739653882E0
8.088020917E0,4.464400606E0,-1.950033118E0,7.744170816E-1,4.932871755E0
8.097963917E0,4.556995944E0,-2.105735115E0,7.241228409E-1,5.071950936E0
8.107907917E0,4.574530574E0,-2.324104207E0,5.867259908E-1,5.164497820E0
8.117850917E0,4.589121131E0,-2.522664541E0,4.672094876E-1,5.257580608E0
8.127793917E0,4.484396330E0,-2.783349495E0,4.036824131E-1,5.293373626E0
8.137736917E0,4.241929253E0,-3.115663425E0,3.773956704E-1,5.276717717E0
8.147679917E0,3.988147815E0,-3.409024666E0,3.095574439E-1,5.255720501E0
8.157622917E0,3.782954984E0,-3.710255090E0,2.773484950E-1,5.306002585E0
8.167565917E0,3.565467213E0,-4.094420959E0,2.568899645E-1,5.435331811E0
8.177508917E0,3.247150640E0,-4.516968829E0,2.051377936E-1,5.566783290E0
8.187451917E0,2.890866342E0,-4.964795381E0,1.144557381E-1,5.746251083E0
8.197394917E0,2.532883428E0,-5.356423759E0,3.698590480E-2,5.925212393E0
8.207337917E0,2.258445531E0,-5.527953585E0,-5.255016960E-2,5.971734134E0
8.217281917E0,2.003455473E0,-5.569391048E0,-1.209099678E-1,5.920014332E0
8.227224917E0,1.611772131E0,-5.579478664E0,-1.116748023E-1,5.808688564E0
8.237167917E0,9.985108906E-1,-5.620741296E0,-5.495743174E-2,5.709008411E0
8.247110917E0,3.308483255E-1,-5.652555996E0,-7.432044983E-2,5.662717849E0
8.257053917E0,-1.069736409E-1,-5.626687914E0,-2.093770615E-1,5.631598263E0
8.266996917E0,-2.733970928E-1,-5.463875118E0,-3.153251739E-1,5.479790803E0
8.276939917E0,-2.822205412E-1,-5.150472545E0,-3.101374511E-1,5.167514016E0
8.286882917E0,-1.408670264E-1,-4.824237673E0,-1.711088989E-1,4.829326133E0
8.296825917E0,-2.772749662E-2,-4.447603894E0,1.293597060E-1,4.449571120E0
8.306768917E0,-1.105766952E-2,-3.901659894E0,4.309993986E-1,3.925408601E0
8.316711917E0,2.689777672E-2,-3.205240722E0,6.554500705E-1,3.271682499E0
8.326655917E0,6.291837931E-2,-2.396456192E0,7.512455893E-1,2.512236243E0
8.336598917E0,-1.191031051E-1,-1.745778765E0,8.121074297E-1,1.929105369E0
8.346541917E0,-4.216269332E-1,-1.357256428E0,9.219375086E-1,1.694072918E0
8.356484917E0,-9.339734173E-1,-1.263925949E0,1.080138606E0,1.906964750E0
8.366427917E0,-1.514368628E0,-1.366094933E0,1.239354780E0,2.386530531E0
8.376370917E0,-1.909207712E0,-1.440852170E0,1.297125855E0,2.720967575E0
8.386313917E0,-2.040425078E0,-1.428721829E0,1.288269078E0,2.804321269E0
8.396256917E0,-2.133777046E0,-1.436597005E0,1.212068163E0,2.843576035E0
8.406199917E0,-2.294995891E0,-1.355974280E0,8.740944207E-1,2.805300954E0
8.416142917E0,-2.434312236E0,-1.180634263E0,4.771398139E-1,2.747259676E0
8.426085917E0,-2.628429270E0,-1.056558393E0,5.267111560E-2,2.833324957E0
8.436029917E0,-2.756599068E0,-8.938618103E-1,-3.350665434E-1,2.917207046E0
8.445972917E0,-2.744692383E0,-6.921869570E-1,-6.460986185E-1,2.903429435E0
8.455915917E0,-2.456639244E0,-4.733312300E-1,-7.682756048E-1,2.617129388E0
8.465858917E0,-1.927600713E0,-2.322707015E-1,-8.283066291E-1,2.110849606E0
8.475801917E0,-1.204888367E0,4.549075305E-2,-8.981615603E-1,1.503502436E0
8.485744917E0,-2.661465454E-1,3.898347446E-1,-8.718666315E-1,9.914416447E-1
8.495687917E0,6.950608635E-1,8.051390836E-1,-8.174705690E-1,1.341497924E0
8.505630917E0,1.477827623E0,1.153403926E0,-7.626254404E-1,2.023836125E0
8.515573917E0,2.140306047E0,1.444863360E0,-7.271655858E-1,2.682780254E0
8.525516917E0,2.612005026E0,1.614775553E0,-6.360308826E-1,3.136017479E0
8.535459917E0,2.977641946E0,1.751883405E0,-5.223317742E-1,3.494034560E0
8.545403917E0,3.246465932E0,1.820887858E0,-3.607148067E-1,3.739691004E0
8.555346917E0,3.384222239E0,1.855017471E0,-1.886533964E-1,3.863889244E0
8.565289917E0,3.504705872E0,1.898124899E0,2.256550156E-2,3.985768506E0
8.575232917E0,3.563278016E0,1.920472957E0,1.693459634E-1,4.051400332E0
8.585175917E0,3.413680512E0,1.931353749E0,2.520243502E-1,3.930249128E0
8.595118917E0,3.078395319E0,1.991207018E0,2.964438933E-1,3.678219965E0
8.605061917E0,2.673220112E0,2.103776444E0,2.736719120E-1,3.412752175E0
8.615004917E0,2.454586287E0,2.288140615E0,1.037365492E-1,3.357282023E0
8.624947917E0,2.144247655E0,2.455316311E0,-8.846427977E-2,3.261012438E0
8.634890917E0,1.795415633E0,2.610647011E0,-2.531072545E-1,3.178530854E0
8.644833917E0,1.527590936E0,2.661741150E0,-3.813249993E-1,3.092540828E0
8.654777917E0,1.250842220E0,2.679190411E0,-4.246856117E-1,2.987143349E0
8.664720917E0,9.823287213E-1,2.624250850E0,-4.868662186E-1,2.844064162E0
8.674663917E0,6.017936808E-1,2.408226053E0,-5.441197423E-1,2.541215191E0
8.684606917E0,1.652154171E-1,2.109863688E0,-4.964460044E-1,2.173770814E0
8.694549917E0,-5.550761819E-3,1.938196160E0,-4.138542295E-1,1.981895681E0
8.704492917E0,-2.693227530E-1,1.720442341E0,-3.890420084E-1,1.784323479E0
8.714435917E0,-6.571679825E-1,1.379497629E0,-4.772636287E-1,1.600832295E0
8.724378917E0,-1.165501522E0,1.014470573E0,-5.421059612E-1,1.637505181E0
8.734321917E0,-1.754089267E0,6.692743501E-1,-5.216007261E-1,1.948544233E0
8.744264917E0,-2.488411844E0,4.188711405E-1,-4.732097541E-1,2.567406086E0
8.754208917E0,-3.139306349E0,2.360813320E-1,-4.497538678E-1,3.180134791E0
8.764151917E0,-3.715398009E0,4.654354423E-2,-5.203789504E-1,3.751951881E0
8.774094917E0,-4.418574223E0,-1.396706861E-1,-6.161216980E-1,4.463508935E0
8.784037917E0,-5.158180929E0,-2.835069287E-1,-6.445678174E-1,5.206022892E0
8.793980917E0,-5.944364217E0,-4.283696499E-1,-6.256982678E-1,5.992534090E0
8.803923917E0,-6.673222572E0,-4.460951918E-1,-6.835207987E-1,6.722953301E0
8.813866917E0,-7.092944482E0,-4.339569569E-1,-8.861058442E-1,7.161240370E0
8.823809917E0,-7.147499589E0,-4.528864405E-1,-1.015702874E0,7.233499072E0
8.833752917E0,-6.729863965E0,-4.010359633E-1,-9.328460741E-1,6.806034134E0
8.843695917E0,-6.021048696E0,-2.100694084E-1,-6.046534078E-1,6.054978307E0
8.853639917E0,-5.173494202E0,2.257703519E-1,-2.945640866E-1,5.186789230E0
8.863582917E0,-4.313583373E0,7.723250940E-1,1.220080018E-2,4.382195389E0
8.873525917E0,-3.502049482E0,1.336995095E0,3.593207574E-1,3.765769226E0
8.883468917E0,-2.826162808E0,1.898057364E0,7.464514571E-1,3.485255766E0
8.893411917E0,-2.283060554E0,2.314019515E0,1.154709901E0,3.449696619E0
8.903354917E0,-1.961739682E0,2.523444268E0,1.579593149E0,3.565292143E0
8.913297917E0,-1.720395271E0,2.682118405E0,1.872703544E0,3.696016449E0
8.923240917E0,-1.674158413E0,2.671646041E0,2.044393145E0,3.757664473E0
8.933183917E0,-1.826410553E0,2.490508656E0,2.112322588E0,3.741699559E0
8.943126917E0,-1.733262654E0,2.313224001E0,1.934978145E0,3.478411294E0
8.953069917E0,-1.607255741E0,1.895388987E0,1.491136470E0,2.898147409E0
8.963013917E0,-1.484947777E0,1.381695012E0,9.957094896E-1,2.259554911E0
8.972956917E0,-1.302299471E0,1.013194711E0,5.295731123E-1,1.732915208E0
8.982899917E0,-1.066194751E0,7.963670906E-1,2.715153857E-1,1.358194535E0
8.992842917E0,-7.108927846E-1,7.895723337E-1,1.247591168E-1,1.069746633E0
9.002785917E0,-4.600261831E-1,7.618796280E-1,1.080375418E-2,8.900569520E-1
9.012728917E0,-4.450187194E-1,6.559745657E-1,7.268783413E-2,7.960074201E-1
9.022671917E0,-3.806940848E-1,6.883122995E-1,1.511679932E-1,8.009703927E-1
9.032614917E0,-2.174269599E-1,7.919115123E-1,2.677533603E-1,8.637651233E-1
9.042557917E0,-1.059129560E-1,8.440277454E-1,3.073156214E-1,9.044574509E-1
9.052500917E0,-5.980532169E-2,8.340196511E-1,3.205462624E-1,8.954972704E-1
9.062444917E0,5.184375286E-2,9.501816067E-1,5.014632078E-1,1.075638512E0
9.072387917E0,2.686164093E-1,1.146270615E0,6.769228005E-1,1.358055807E0
9.082330917E0,3.819027042E-1,1.212539741E0,8.295351291E-1,1.517969311E0
9.092273917E0,4.339405847E-1,1.241962053E0,9.376444454E-1,1.615534363E0
9.102216917E0,6.267612916E-1,1.255763236E0,9.878916892E-1,1.716304464E0
9.112159917E0,9.798448241E-1,1.187290587E0,9.874976599E-1,1.828908539E0
9.122102917E0,1.288160319E0,1.070233423E0,9.033071101E-1,1.902819046E0
9.132045917E0,1.632983490E0,9.226181245E-1,8.316215618E-1,2.051695325E0
9.141988917E0,1.990362972E0,7.612437433E-1,7.828983217E-1,2.270234917E0
9.151931917E0,2.300951865E0,5.807893127E-1,6.887811001E-1,2.471055465E0
9.161875917E0,2.519758767E0,3.824298307E-1,5.989735687E-1,2.618053887E0
9.171818917E0,2.674606487E0,1.695993671E-1,4.819748765E-1,2.722973299E0
9.181761917E0,2.840339967E0,-8.915074289E-2,3.340923607E-1,2.861310310E0
9.191704917E0,2.971939741E0,-3.095650452E-1,1.414745522E-1,2.991366141E0
9.201647917E0,3.050202384E0,-5.259419914E-1,3.037321553E-2,3.095362999E0
9.211590917E0,3.120970066E0,-7.367588201E-1,-4.271098673E-2,3.207037876E0
9.221533917E0,3.158830202E0,-9.156811340E-1,-1.297048379E-1,3.291428798E0
9.231476917E0,3.201619542E0,-1.083460701E0,-1.722542953E-1,3.384364981E0
9.241420208E0,3.162764794E0,-1.276261820E0,-2.110599267E-1,3.417085259E0
9.251363208E0,3.034553481E0,-1.458813208E0,-2.705157311E-1,3.377843923E0
9.261307208E0,3.024528430E0,-1.626281704E0,-3.341929328E-1,3.450253515E0
9.271250208E0,2.904658170E0,-1.844173664E0,-3.716187675E-1,3.460652553E0
9.281193208E0,2.706621162E0,-2.114235066E0,-3.175961959E-1,3.449152848E0
9.291136208E0,2.535970173E0,-2.337136774E0,-2.169433951E-1,3.455490914E0
9.301079208E0,2.209299098E0,-2.656141857E0,-1.086658251E-1,3.456573495E0
9.311022208E0,1.674087662E0,-3.099407288E0,-8.020859599E-2,3.523539195E0
9.320965208E0,1.120338213E0,-3.552275895E0,-4.567040876E-2,3.725037924E0
9.330908208E0,6.565768290E-1,-3.832770338E0,9.714929536E-2,3.889814852E0
9.340851208E0,2.601800466E-1,-3.973302611E0,2.027533722E-1,3.986970809E0
9.350795208E0,-1.947742617E-1,-4.040725978E0,2.770739682E-1,4.054894996E0
9.360738208E0,-6.561470586E-1,-4.124498452E0,3.147058441E-1,4.188204414E0
9.370681208E0,-1.233806357E0,-4.168932613E0,1.858384737E-1,4.351644884E0
9.380624208E0,-1.812310578E0,-4.099138493E0,4.035631299E-2,4.482079277E0
9.390567208E0,-2.305426739E0,-4.027577344E0,-8.686565101E-2,4.641542562E0
9.400510208E0,-2.742311397E0,-4.115679389E0,-2.796910357E-1,4.953515489E0
9.410453208E0,-2.943808787E0,-4.165091577E0,-5.132008354E-1,5.126146030E0
9.420396208E0,-2.738618295E0,-3.997029443E0,-6.541011178E-1,4.889184268E0
9.430339208E0,-2.285049777E0,-3.622292794E0,-6.025766230E-1,4.324992041E0
9.440282208E0,-1.720404042E0,-3.034063192E0,-3.359272170E-1,3.504022919E0
9.450226208E0,-1.093282562E0,-2.361086969E0,-3.567561686E-2,2.602166633E0
9.460169208E0,-6.175419867E-1,-1.660734083E0,1.706299388E-1,1.780031005E0
9.470112208E0,-1.833441246E-1,-8.199699613E-1,3.143545727E-1,8.970978781E-1
9.480055208E0,2.057260966E-1,-1.342324832E-1,4.631484501E-1,5.242595476E-1
9.489998208E0,3.259495282E-1,3.167848948E-1,5.941040075E-1,7.480343149E-1
9.499941208E0,1.902011544E-1,3.285538781E-1,6.663766893E-1,7.669302589E-1
9.509884208E0,9.392382503E-3,1.067371210E-1,7.113359305E-1,7.193607133E-1
9.519827208E0,-2.332290602E-1,-1.740651780E-1,8.551693225E-1,9.033321930E-1
9.529770208E0,-5.192298263E-1,-4.796044153E-1,1.022060479E0,1.242669558E0
9.539713208E0,-7.997488278E-1,-7.951941392E-1,1.025864604E0,1.524575381E0
9.549657208E0,-1.125693094E0,-1.086619660E0,8.338275701E-1,1.772905988E0
9.559600208E0,-1.389862695E0,-1.170412891E0,4.420003867E-1,1.870013099E0
9.569543208E0,-1.525545580E0,-1.062218352E0,-1.089370994E-1,1.862112896E0
9.579486208E0,-1.378001618E0,-8.234940782E-1,-7.077124840E-1,1.754391039E0
9.589429208E0,-1.185141150E0,-5.599550986E-1,-1.224761299E0,1.793920148E0
9.599372208E0,-8.919342756E-1,-3.577884945E-1,-1.515184314E0,1.794252732E0
9.609315208E0,-5.015437531E-1,-1.399443358E-1,-1.545322033E0,1.630690265E0
9.619258208E0,-1.090692830E-1,-8.397975773E-2,-1.408512390E0,1.415222901E0
9.629201208E0,3.201292098E-1,-9.362269342E-2,-1.266088250E0,1.309285063E0
9.639145208E0,9.041941327E-1,-5.130493194E-2,-1.281492155E0,1.569210428E0
9.649088208E0,1.810012622E0,9.787391156E-2,-1.253919609E0,2.204096046E0
9.659031208E0,2.857315603E0,4.941549191E-1,-8.937381417E-1,3.034338381E0
9.668974208E0,3.565690577E0,7.044333655E-1,-4.735157827E-1,3.665323022E0
9.678917208E0,4.039044904E0,8.012457150E-1,3.799688838E-2,4.117926929E0
9.688860208E0,4.314304335E0,9.044397157E-1,5.143560259E-1,4.437994503E0
9.698803208E0,4.370323584E0,9.889521548E-1,9.480406487E-1,4.580014811E0
9.708746208E0,4.256534429E0,1.047421095E0,1.316611847E0,4.576968762E0
9.718689208E0,4.066304623E0,1.056681331E0,1.524444988E0,4.469378172E0
9.728633208E0,3.928764662E0,1.218215049E0,1.503245469E0,4.379381990E0
9.738576208E0,3.725604908E0,1.425932415E0,1.193973370E0,4.164010998E0
9.748519208E0,3.419685017E0,1.578972759E0,8.033062738E-1,3.851324650E0
9.758462208E0,3.097390584E0,1.774886936E0,3.671922791E-1,3.588715959E0
9.768405208E0,2.792107455E0,1.942915741E0,-5.410384789E-2,3.402015996E0
9.778348208E0,2.474531724E0,1.998160234E0,-4.986607104E-1,3.219412070E0
9.788291208E0,2.086235089E0,1.963324277E0,-7.629296418E-1,2.964638377E0
9.798234208E0,1.716907992E0,1.893162660E0,-8.835786045E-1,2.704172528E0
9.808177208E0,1.335074869E0,1.828412348E0,-1.067428513E0,2.502982271E0
9.818120208E0,9.140133619E-1,1.733182839E0,-1.286532893E0,2.344037130E0
9.828064208E0,5.273206186E-1,1.646649603E0,-1.391147329E0,2.219191934E0
9.838007208E0,2.018622565E-1,1.620679779E0,-1.364926221E0,2.128467737E0
9.847950208E0,-1.569538862E-1,1.584317407E0,-1.205480982E0,1.996967843E0
9.857893208E0,-4.942639697E-1,1.522938892E0,-9.850190252E-1,1.879867607E0
9.867836208E0,-8.521603453E-1,1.432462877E0,-7.441295278E-1,1.825337203E0
9.877779208E0,-1.214690055E0,1.315415361E0,-5.547616017E-1,1.874446568E0
9.887722208E0,-1.808156131E0,1.101999591E0,-4.241091494E-1,2.159560201E0
9.897665208E0,-2.570005061E0,8.108146834E-1,-2.962532741E-1,2.711109084E0
9.907608208E0,-3.179135828E0,5.878553805E-1,-2.270046991E-1,3.240988999E0
9.917552208E0,-3.727630384E0,3.848058468E-1,-2.664190257E-1,3.756898044E0
9.927495208E0,-4.314979688E0,1.630788445E-3,-3.923271203E-1,4.332778893E0
9.937438208E0,-4.773303747E0,-3.222295296E-1,-5.800812149E-1,4.819206858E0
9.947381208E0,-5.229698224E0,-4.724401143E-1,-7.641697631E-1,5.306307436E0
9.957324208E0,-5.550115702E0,-5.264090377E-1,-9.054477757E-1,5.648072809E0
9.967267208E0,-5.724705960E0,-4.911690384E-1,-1.029342674E0,5.837212664E0
9.977210208E0,-5.684628559E0,-4.227115917E-1,-1.108462592E0,5.807097059E0
9.987153208E0,-5.525514711E0,-4.912339425E-1,-1.065914084E0,5.648787166E0
9.997096208E0,-5.240336648E0,-5.753736216E-1,-7.682592326E-1,5.327513983E0
1.000704021E1,-4.701939649E0,-2.711447453E-1,-4.492754924E-1,4.731131408E0
1.001698321E1,-4.144152698E0,1.846097544E-1,-6.294761539E-2,4.148740140E0
1.002692621E1,-3.683833569E0,6.552123812E-1,3.212963140E-1,3.755418000E0
1.003686921E1,-3.086648664E0,1.244874259E0,5.936163497E-1,3.380753210E0
1.004681221E1,-2.546366522E0,1.976292817E0,9.551742518E-1,3.361855680E0
1.005675521E1,-2.073489913E0,2.598404403E0,1.274330485E0,3.560194383E0
1.006669821E1,-1.744651861E0,2.882220064E0,1.562754337E0,3.713920265E0
1.007664121E1,-1.568408010E0,2.957419351E0,1.813275953E0,3.807125239E0
1.008658421E1,-1.556094943E0,2.916756644E0,1.979076823E0,3.853004783E0
1.009652821E1,-1.506114698E0,2.761465706E0,2.008255598E0,3.731911692E0
1.010647121E1,-1.470059597E0,2.414191382E0,1.876391383E0,3.392674442E0
1.011641421E1,-1.654381961E0,1.923408260E0,1.569706092E0,2.983363240E0
1.012635721E1,-1.945208434E0,1.441995593E0,1.167929871E0,2.688354018E0
1.013630021E1,-2.187136981E0,1.012724887E0,6.458998132E-1,2.495268811E0
1.014624321E1,-2.392929152E0,6.281830421E-1,1.384924722E-1,2.477882972E0
1.015618621E1,-2.560931352E0,4.201098731E-1,-2.752618430E-1,2.609718524E0
1.016612921E1,-2.635379856E0,4.353819233E-1,-5.527380265E-1,2.727692015E0
1.017607221E1,-2.608532365E0,5.330520594E-1,-5.600873188E-1,2.720713767E0
1.018601621E1,-2.572604733E0,6.243940464E-1,-5.388191682E-1,2.701571604E0
1.019595921E1,-2.481838989E0,7.081615502E-1,-4.548899889E-1,2.620675953E0
1.020590221E1,-2.125220230E0,8.312542105E-1,-2.966900611E-1,2.301210460E0
1.021584521E1,-1.769963872E0,8.300990930E-1,-7.343635082E-2,1.956330624E0
1.022578821E1,-1.391612182E0,8.176483244E-1,3.063472494E-1,1.642857841E0
1.023573121E1,-9.072171432E-1,9.157067156E-1,7.593960962E-1,1.496076256E0
1.024567454E1,-3.929808390E-1,9.087052596E-1,1.060133015E0,1.450538244E0
1.025561754E1,1.558154333E-1,8.244462973E-1,1.274871937E0,1.526200708E0
1.026556054E1,6.432451773E-1,6.414360487E-1,1.458851069E0,1.718560736E0
1.027550454E1,1.152123678E0,5.385493192E-1,1.578606139E0,2.027170856E0
1.028544754E1,1.605310373E0,4.578942883E-1,1.627216966E0,2.331206475E0
1.029539054E1,1.968384458E0,3.220421264E-1,1.581508112E0,2.545469782E0
1.030533354E1,2.273803242E0,1.881756788E-1,1.494037274E0,2.727221782E0
1.031527654E1,2.572659112E0,2.798769772E-2,1.311404171E0,2.887756762E0
1.032521954E1,2.911087183E0,-1.333086231E-1,1.108686978E0,3.117913821E0
1.033516254E1,3.218363044E0,-3.314869876E-1,9.064510848E-1,3.359969921E0
1.034510554E1,3.506320873E0,-4.909610237E-1,7.629744460E-1,3.621803252E0
1.035504954E1,3.733109810E0,-6.737429385E-1,5.696859618E-1,3.835958875E0
1.036499254E1,3.936174254E0,-8.981238458E-1,3.314704692E-1,4.050921731E0
1.037493554E1,4.063841191E0,-1.159026462E0,1.686909290E-1,4.229255749E0
1.038487854E1,4.163864247E0,-1.373957099E0,-5.411013365E-3,4.384695298E0
1.039482154E1,4.196215137E0,-1.593094370E0,-1.554990989E-1,4.491141404E0
1.040476454E1,4.142213176E0,-1.831596157E0,-2.714873922E-1,4.537221604E0
1.041470754E1,4.056688292E0,-2.063855895E0,-3.925012212E-1,4.568399967E0
1.042465054E1,3.994088001E0,-2.276387419E0,-5.106016749E-1,4.625515400E0
1.043459454E1,3.864069314E0,-2.451586665E0,-5.238403559E-1,4.606052275E0
1.044453754E1,3.531791344E0,-2.700572217E0,-4.421454708E-1,4.467900292E0
1.045448054E1,3.058496659E0,-2.945086988E0,-4.027164531E-1,4.264987658E0
1.046442354E1,2.658320237E0,-3.156684566E0,-4.176104808E-1,4.147978116E0
1.047436654E1,2.186053492E0,-3.472525136E0,-4.044986113E-1,4.123212318E0
1.048430954E1,1.697746081E0,-3.747720540E0,-2.983781523E-1,4.125140061E0
1.049425254E1,1.282718316E0,-3.957894321E0,-2.157384302E-1,4.166153718E0
1.050419554E1,8.374148369E-1,-4.163586504E0,-2.636808477E-1,4.255143214E0
1.051413854E1,3.810279608E-1,-4.229347215E0,-4.464420048E-1,4.269879464E0
1.052408254E1,-1.222477376E-1,-4.162597740E0,-5.298308283E-1,4.197962024E0
1.053402554E1,-7.890618718E-1,-4.105785608E0,-5.202898900E-1,4.213169313E0
1.054396854E1,-1.241357451E0,-3.981887786E0,-5.511345373E-1,4.207154375E0
1.055391154E1,-1.344483039E0,-3.833784245E0,-6.417699248E-1,4.113077305E0
1.056385454E1,-1.394663844E0,-3.866880655E0,-8.031735420E-1,4.188429417E0
1.057379754E1,-1.503289908E0,-4.137679830E0,-8.440075725E-1,4.482479638E0
1.058374054E1,-1.279813419E0,-4.242143261E0,-8.758392298E-1,4.516724056E0
1.059368354E1,-7.864586914E-1,-3.960582286E0,-9.165101230E-1,4.140618326E0
1.060362754E1,-3.466901869E-1,-3.439210625E0,-8.325686646E-1,3.555493551E0
1.061357054E1,-1.108485907E-1,-2.815590750E0,-6.295685399E-1,2.887246998E0
1.062351354E1,-4.270572424E-2,-2.097525039E0,-4.835496048E-1,2.152964303E0
1.063345654E1,8.850696445E-2,-1.259969723E0,-3.372037007E-1,1.307311563E0
1.064339954E1,2.645824152E-1,-4.848876670E-1,-1.284843779E-1,5.671226846E-1
1.065334254E1,1.748066050E-1,5.867388546E-2,1.401027954E-1,2.315788575E-1
1.066328554E1,-9.923192739E-2,2.641546914E-1,4.934664094E-1,5.684485673E-1
1.067322854E1,-5.065904850E-1,1.854514611E-1,8.667649359E-1,1.020934679E0
1.068317254E1,-1.068825413E0,-1.978484353E-1,1.109934847E0,1.553540193E0
1.069311554E1,-1.598750966E0,-7.283575407E-1,1.154889411E0,2.102445935E0
1.070305854E1,-1.873458420E0,-1.185632901E0,1.011989307E0,2.437148782E0
1.071300154E1,-1.945607799E0,-1.446767506E0,8.775711751E-1,2.578498999E0
1.072294454E1,-2.305347801E0,-1.630270675E0,8.000218928E-1,2.934696916E0
1.073288754E1,-2.456871963E0,-1.495332725E0,6.420172620E-1,2.946935012E0
1.074283054E1,-2.490930240E0,-1.158971060E0,4.724725664E-1,2.787683214E0
1.075277354E1,-2.427328906E0,-7.621360284E-1,2.629457796E-1,2.557717230E0
1.076271654E1,-2.073221526E0,-4.192494553E-1,-3.938334544E-2,2.115553982E0
1.077266054E1,-1.730263032E0,-1.634948739E-1,-3.191275817E-1,1.767026640E0
1.078260354E1,-1.308650717E0,3.032073677E-2,-3.229861593E-1,1.348260400E0
1.079254654E1,-7.985232514E-1,2.575321350E-1,-2.267340096E-1,8.691205294E-1
1.080248954E1,-1.039313346E-1,5.444664091E-1,-1.973686713E-1,5.883874449E-1
1.081243254E1,6.708206463E-1,8.261171392E-1,-2.895476872E-1,1.102863423E0
1.082237554E1,1.503673486E0,9.872523692E-1,-2.579124963E-1,1.817201158E0
1.083231854E1,2.262660788E0,1.133910186E0,-1.503705426E-1,2.535349572E0
1.084226154E1,2.861529107E0,1.309344782E0,-3.013062917E-2,3.147004996E0
1.085220554E1,3.293791541E0,1.326221308E0,1.725787793E-1,3.554955570E0
1.086214854E1,3.574097704E0,1.315554525E0,4.309946843E-1,3.832833746E0
1.087209154E1,3.732532690E0,1.352391106E0,6.791130944E-1,4.027649014E0
1.088203454E1,3.887738843E0,1.506011495E0,8.097107291E-1,4.247142027E0
1.089197754E1,3.944417074E0,1.679841322E0,7.769382548E-1,4.357054736E0
1.090192054E1,3.772940458E0,1.869330871E0,6.713971817E-1,4.263830646E0
1.091186354E1,3.650449476E0,2.040660721E0,5.456821183E-1,4.217564052E0
1.092180754E1,3.461224807E0,2.180512671E0,4.094371697E-1,4.111246948E0
1.093175054E1,3.212803511E0,2.277142003E0,2.423064239E-1,3.945401691E0
1.094169354E1,2.964626629E0,2.348983233E0,6.309540376E-2,3.782950476E0
1.095163654E1,2.704192813E0,2.353959798E0,-1.354378867E-1,3.587774926E0
1.096157954E1,2.331191325E0,2.291610061E0,-3.344718450E-1,3.286000773E0
1.097152254E1,2.002798830E0,2.225823330E0,-5.444213855E-1,3.043334897E0
1.098146554E1,1.611853407E0,2.136600081E0,-6.649857829E-1,2.757777621E0
1.099140854E1,1.181397763E0,1.984792037E0,-6.895762483E-1,2.410521833E0
1.100135254E1,7.331899720E-1,1.794291798E0,-6.600586997E-1,2.047615217E0
1.101129554E1,3.217833871E-1,1.591681098E0,-6.220052395E-1,1.738931794E0
1.102123854E1,-2.461549151E-1,1.271410385E0,-5.600547206E-1,1.410935116E0
1.103118154E1,-8.962805110E-1,8.695786160E-1,-4.857364634E-1,1.339934937E0
1.104112454E1,-1.376607642E0,5.457948965E-1,-4.687948139E-1,1.553289814E0
1.105106754E1,-1.777331364E0,1.908069259E-1,-4.218217917E-1,1.836640325E0
1.106101054E1,-2.245338997E0,-2.161019808E-1,-2.993337335E-1,2.275488510E0
1.107095354E1,-2.795066146E0,-5.738360962E-1,-1.685888220E-1,2.858339521E0
1.108089754E1,-3.366790520E0,-7.615972075E-1,-9.292395115E-2,3.453106366E0
1.109084054E1,-3.931647924E0,-8.172474977E-1,-1.616053462E-2,4.015720363E0
1.110078354E1,-4.475702105E0,-7.591978025E-1,4.141641319E-2,4.539824441E0
1.111072654E1,-4.934316770E0,-5.870119196E-1,2.561314344E-2,4.969177096E0
1.112066954E1,-5.395005443E0,-5.046495017E-1,-8.531745449E-3,5.418563245E0
1.113061254E1,-5.668655135E0,-4.791158804E-1,-1.645337049E-1,5.691245418E0
1.114055554E1,-5.924364401E0,-5.744942003E-1,-4.110558251E-1,5.966330868E0
1.115049954E1,-5.923741672E0,-6.512719426E-1,-6.613212597E-1,5.996016707E0
1.116044254E1,-5.402217398E0,-5.570534179E-1,-6.175361395E-1,5.465858781E0
1.117038554E1,-4.575042790E0,-1.080588841E-1,-4.153218806E-1,4.595126279E0
1.118032854E1,-3.753439994E0,5.430677551E-1,-1.411085895E-1,3.795147693E0
1.119027154E1,-3.142186103E0,1.188642463E0,2.863220707E-2,3.359616677E0
1.120021454E1,-2.869986520E0,1.694157353E0,1.795820260E-1,3.337550219E0
1.121015754E1,-2.510889126E0,2.210266228E0,4.799898930E-1,3.379383272E0
1.122010054E1,-2.215884233E0,2.635219350E0,9.752622881E-1,3.578499753E0
1.123004454E1,-2.091491736E0,2.829859418E0,1.389742243E0,3.783361668E0
1.123998754E1,-1.908255200E0,2.866046666E0,1.471376390E0,3.744410485E0
1.124993029E1,-1.889869215E0,2.611519415E0,1.206481587E0,3.441981570E0
1.125987329E1,-1.854232775E0,2.162429572E0,8.437676905E-1,2.970896288E0
1.126981629E1,-1.712755299E0,1.697922083E0,5.477858003E-1,2.473163843E0
1.127975929E1,-1.649658580E0,1.245180945E0,2.996873438E-1,2.088459126E0
1.128970229E1,-1.518816020E0,8.319000354E-1,2.521131548E-1,1.749977375E0
1.129964629E1,-1.191124606E0,7.393859741E-1,1.187263982E-1,1.406970292E0
1.130958929E1,-9.296838999E-1,8.338676235E-1,2.548801303E-3,1.248861027E0
1.131953229E1,-9.678334737E-1,8.897108719E-1,5.619174242E-2,1.315843676E0
1.132947529E1,-1.197812067E0,9.247722387E-1,3.233766802E-1,1.547426870E0
1.133941829E1,-1.257676445E0,1.063957021E0,6.128934503E-1,1.757666910E0
1.134936129E1,-1.352558044E0,1.191666058E0,7.515753722E-1,1.953035278E0
1.135930429E1,-1.453212014E0,1.244712291E0,8.295298666E-1,2.085486429E0
1.136924729E1,-1.418850267E0,1.368486444E0,8.637015796E-1,2.152178349E0
1.137919129E1,-1.222153441E0,1.539839976E0,8.931271076E-1,2.159268908E0
1.138913429E1,-9.596005940E-1,1.638819889E0,9.337664258E-1,2.116242818E0
1.139907729E1,-6.571416700E-1,1.715630668E0,1.012230213E0,2.097578071E0
1.140902029E1,-2.115154248E-1,1.776468315E0,1.040289758E0,2.069488157E0
1.141896329E1,1.058275867E-1,1.728947701E0,9.637193727E-1,1.982224675E0
1.142890629E1,4.917777336E-1,1.641881783E0,8.213291466E-1,1.900579568E0
1.143884929E1,9.564723337E-1,1.489712381E0,7.077966108E-1,1.906582898E0
1.144879329E1,1.392898570E0,1.231052026E0,6.192470348E-1,1.959367859E0
1.145873629E1,1.762155501E0,9.723115638E-1,5.996903642E-1,2.100050075E0
1.146867929E1,2.140297276E0,7.444748059E-1,6.119426930E-1,2.347251377E0
1.147862229E1,2.417918397E0,4.878475276E-1,6.610756767E-1,2.553692549E0
1.148856529E1,2.557985525E0,2.071396610E-1,7.356322078E-1,2.669710008E0
1.149850829E1,2.685613870E0,-6.704885244E-2,7.583253249E-1,2.791428793E0
1.150845129E1,2.840558653E0,-3.134391180E-1,7.236074089E-1,2.947986639E0
1.151839529E1,2.990056754E0,-5.657324401E-1,6.470047908E-1,3.111126450E0
1.152833829E1,3.223814403E0,-7.973818749E-1,5.518847716E-1,3.366507680E0
1.153828129E1,3.437229003E0,-1.001551881E0,4.222694691E-1,3.604991109E0
1.154822429E1,3.579624492E0,-1.238432381E0,2.881297374E-1,3.798742557E0
1.155816729E1,3.778536828E0,-1.369714798E0,1.242281165E-1,4.021056057E0
1.156811029E1,3.837838705E0,-1.570684039E0,-5.970591903E-2,4.147242345E0
1.157805329E1,3.786777309E0,-1.885327683E0,-1.488508147E-1,4.232764986E0
1.158799729E1,3.629188415E0,-2.182115539E0,-1.874256273E-1,4.238840071E0
1.159794029E1,3.354276309E0,-2.459733883E0,-2.362924165E-1,4.166208641E0
1.160788329E1,3.068617605E0,-2.793442374E0,-2.534697819E-1,4.157400778E0
1.161782629E1,2.586021754E0,-3.222055268E0,-1.428439701E-1,4.133951265E0
1.162776929E1,1.889224852E0,-3.682610624E0,-1.301613593E-1,4.140982194E0
1.163771229E1,1.188663513E0,-4.038243835E0,-1.907456032E-1,4.213872103E0
1.164765529E1,6.060650718E-1,-4.238351634E0,-2.657530278E-1,4.289704433E0
1.165759929E1,-3.639073133E-2,-4.313207982E0,-3.268184976E-1,4.325725108E0
1.166754229E1,-7.224609160E-1,-4.369395046E0,-4.078936509E-1,4.447464455E0
1.167748529E1,-1.136562483E0,-4.266529659E0,-4.236939240E-1,4.435602118E0
1.168742829E1,-1.366035876E0,-4.151195669E0,-4.114346516E-1,4.389505436E0
1.169737129E1,-1.771293529E0,-4.280120635E0,-3.801130177E-1,4.647730556E0
1.170731429E1,-2.119372430E0,-4.574545777E0,-4.494345367E-1,5.061640047E0
1.171725729E1,-2.171926619E0,-4.824060502E0,-5.845859464E-1,5.322646494E0
1.172720129E1,-1.915678825E0,-4.858343605E0,-5.411399281E-1,5.250348594E0
1.173714429E1,-1.529781888E0,-4.628960550E0,-2.781766434E-1,4.883123042E0
1.174708729E1,-1.051636353E0,-4.077965140E0,4.443529408E-2,4.211616459E0
1.175703029E1,-5.455756259E-1,-3.327667969E0,3.592107932E-1,3.391173731E0
1.176697329E1,-1.513230175E-1,-2.458007492E0,6.333749311E-1,2.542806184E0
1.177691629E1,9.136917651E-2,-1.630536138E0,8.468569207E-1,1.839609488E0
1.178685929E1,2.372162765E-1,-8.631744531E-1,9.710536084E-1,1.320714507E0
1.179680329E1,2.142466593E-1,-2.699098134E-1,1.103074894E0,1.155650103E0
1.180674629E1,7.758202672E-2,8.395812303E-2,1.304754717E0,1.309752958E0
1.181668929E1,-1.107854408E-1,9.999411196E-2,1.500084465E0,1.507489846E0
1.182663229E1,-3.201233625E-1,-1.671850517E-1,1.536947066E0,1.578808441E0
1.183657529E1,-6.212122840E-1,-7.142584419E-1,1.247618065E0,1.566084499E0
1.184651829E1,-9.634843147E-1,-1.266661277E0,8.220892847E-1,1.791246384E0
1.185646129E1,-1.223606474E0,-1.698927804E0,6.323985922E-1,2.187120587E0
1.186640529E1,-1.370449355E0,-1.743885583E0,4.987569702E-1,2.273329469E0
1.187634829E1,-1.471338383E0,-1.456052884E0,1.862174463E-1,2.078365602E0
1.188629129E1,-1.740260602E0,-1.088270036E0,-1.440303336E-1,2.057567343E0
1.189623429E1,-2.018112688E0,-6.572504282E-1,-4.005518138E-1,2.159907105E0
1.190617729E1,-1.986368739E0,-1.624941230E-1,-5.889742817E-1,2.078209761E0
1.191612029E1,-1.868972436E0,3.197231206E-1,-9.041841924E-1,2.100673676E0
1.192606329E1,-1.624567593E0,7.196162456E-1,-1.119638886E0,2.100156813E0
1.193600729E1,-1.236078585E0,1.072127043E0,-1.197302774E0,2.027530665E0
1.194595029E1,-5.546692157E-1,1.331773824E0,-1.158520532E0,1.850256544E0
1.195589329E1,2.451082635E-1,1.379582705E0,-1.082460535E0,1.770606482E0
1.196583629E1,1.225537224E0,1.372368411E0,-9.808072758E-1,2.085022651E0
1.197577929E1,2.166339020E0,1.529976893E0,-7.982291365E-1,2.769661314E0
1.198572229E1,2.889299873E0,1.567248507E0,-3.924113933E-1,3.310333570E0
1.199566529E1,3.284433072E0,1.518123125E0,6.744288169E-2,3.618942797E0
1.200560929E1,3.536835737E0,1.403974658E0,4.947258997E-1,3.837330529E0
1.201555229E1,3.753726507E0,1.342481245E0,8.571187842E-1,4.077667372E0
1.202549529E1,3.889923363E0,1.355436921E0,1.040488563E0,4.248685616E0
1.203543829E1,3.862398764E0,1.470467148E0,1.171425337E0,4.295653055E0
1.204538129E1,3.611195363E0,1.629192156E0,1.062547258E0,4.101707657E0
1.205532429E1,3.225678495E0,1.749688945E0,7.375574036E-1,3.743047432E0
1.206526829E1,3.058071567E0,1.864110769E0,3.267109819E-1,3.596310711E0
1.207521129E1,2.908812032E0,2.015227672E0,-1.204036720E-1,3.540738207E0
1.208515429E1,2.719758101E0,2.078178796E0,-5.859950888E-1,3.472650498E0
1.209509729E1,2.497171558E0,2.043951534E0,-9.336572291E-1,3.359362958E0
1.210504029E1,2.264849401E0,1.982610734E0,-1.169691272E0,3.229313519E0
1.211498329E1,2.018061817E0,1.913770587E0,-1.446699970E0,3.134969244E0
1.212492629E1,1.792572716E0,1.745343294E0,-1.555958265E0,2.946276681E0
1.213487029E1,1.513702630E0,1.480486644E0,-1.295786258E0,2.482377566E0
1.214481329E1,1.180244107E0,1.337653491E0,-8.613204472E-1,1.980950764E0
1.215475629E1,9.011570889E-1,1.271454239E0,-7.084661901E-1,1.711900793E0
1.216469929E1,4.693255949E-1,9.825099850E-1,-8.034413445E-1,1.353185271E0
1.217464229E1,-5.522695184E-2,7.756232160E-1,-9.076598505E-1,1.195193622E0
1.218458529E1,-6.986609942E-1,5.744488844E-1,-9.550920253E-1,1.315416087E0
1.219452929E1,-1.422398357E0,3.125558960E-1,-9.717219452E-1,1.750757497E0
1.220447229E1,-2.057039942E0,6.116362989E-2,-8.849094307E-1,2.240138168E0
1.221441529E1,-2.512129905E0,-6.921202987E-2,-7.515858972E-1,2.623064682E0
1.222435829E1,-2.883483063E0,-1.229713306E-1,-6.866771257E-1,2.966668501E0
1.223430129E1,-3.262928767E0,-1.686114800E-1,-5.958692819E-1,3.321173614E0
1.224424417E1,-3.722456183E0,-1.439356452E-1,-5.525525967E-1,3.765994142E0
1.225418717E1,-4.099075928E0,-9.753184944E-2,-7.470000722E-1,4.167726602E0
1.226413117E1,-4.391248430E0,-1.469115856E-1,-1.025123323E0,4.511709611E0
1.227407417E1,-4.501119951E0,-2.320359358E-1,-9.919275105E-1,4.614958469E0
1.228401717E1,-4.565883127E0,-2.468060026E-1,-9.916526914E-1,4.678843553E0
1.229396017E1,-4.663953797E0,-3.673849449E-1,-1.226417230E0,4.836479706E0
1.230390317E1,-4.678917992E0,-5.222364646E-1,-1.421985398E0,4.918032835E0
1.231384617E1,-4.543102959E0,-6.175940269E-1,-1.473900048E0,4.815972200E0
1.232379017E1,-4.206993309E0,-6.211254528E-1,-1.013185648E0,4.371628380E0
1.233373317E1,-3.545012484E0,-1.174606222E-1,-2.738772954E-1,3.557515886E0
1.234367617E1,-3.045259148E0,5.870841327E-1,2.978676172E-1,3.115605266E0
1.235361917E1,-2.573179514E0,1.174774622E0,6.972395360E-1,2.913329915E0
1.236356217E1,-2.221905695E0,1.552840383E0,1.073560050E0,2.915597598E0
1.237350517E1,-1.915423302E0,1.863513476E0,1.389955081E0,3.012225760E0
1.238344817E1,-1.501431663E0,2.029633749E0,1.670570562E0,3.027295195E0
1.239339217E1,-1.378094004E0,1.893052732E0,1.957937238E0,3.052263088E0
1.240333517E1,-1.467432443E0,1.504297091E0,2.035645564E0,2.925768374E0
1.241327817E1,-1.572441419E0,1.017797347E0,1.835324488E0,2.622384303E0
1.242322117E1,-1.498891048E0,5.369214544E-1,1.415056009E0,2.130103878E0
1.243316417E1,-1.427543907E0,-7.383863926E-3,1.140861940E0,1.827430463E0
1.244310717E1,-1.420336629E0,-3.280247051E-1,9.333236454E-1,1.730909984E0
1.245305117E1,-1.479847251E0,-3.942011529E-1,5.830211949E-1,1.638675120E0
1.246299417E1,-1.467758718E0,-2.946257016E-1,2.139847040E-1,1.512253091E0
1.247293717E1,-1.434805564E0,-1.345467710E-1,-7.130219020E-2,1.442863072E0
1.248288017E1,-1.325707045E0,6.356566608E-2,-3.683558750E-1,1.377398205E0
1.249282317E1,-1.119287469E0,2.601244980E-1,-5.679961165E-1,1.281830246E0
1.250276617E1,-8.071291834E-1,4.884421894E-1,-5.219424228E-1,1.078173077E0
1.251271017E1,-4.737846816E-1,6.758182615E-1,-2.744033255E-1,8.697697581E-1
1.252265317E1,-1.180646396E-1,7.486286679E-1,1.343345171E-1,7.696946823E-1
1.253259617E1,5.074962187E-1,9.346932095E-1,6.076870894E-1,1.224943838E0
1.254253917E1,1.016930789E0,9.775576857E-1,9.816515406E-1,1.718547935E0
1.255248217E1,1.490835339E0,1.048554286E0,1.359133823E0,2.273609651E0
1.256242517E1,1.887735566E0,1.083995722E0,1.760312458E0,2.799516430E0
1.257236917E1,2.112408981E0,1.073334201E0,2.023958734E0,3.116203935E0
1.258231217E1,2.266728112E0,1.041171884E0,2.158863940E0,3.298907203E0
1.259225517E1,2.324483399E0,9.130827776E-1,2.157916106E0,3.300537101E0
1.260219817E1,2.435468230E0,7.816391239E-1,1.976285216E0,3.232362677E0
1.261214117E1,2.561859890E0,7.406521887E-1,1.626010101E0,3.123395685E0
1.262208417E1,2.773657735E0,6.615805838E-1,1.326093546E0,3.144740084E0
1.263202817E1,2.925688850E0,5.336753726E-1,1.067467032E0,3.159738995E0
1.264197117E1,2.998351614E0,4.032064497E-1,8.418727541E-1,3.140292595E0
1.265191417E1,3.049117141E0,2.769153625E-1,5.704426646E-1,3.114354233E0
1.266185717E1,3.042348989E0,9.208750695E-2,3.064081335E-1,3.059126251E0
1.267180017E1,3.154214995E0,-6.107767582E-2,6.746977888E-2,3.155527672E0
1.268174317E1,3.199764805E0,-1.530868301E-1,-1.663679764E-1,3.207741992E0
1.269168617E1,3.163576387E0,-2.852549538E-1,-2.955381596E-1,3.190129895E0
1.270163017E1,3.205735981E0,-4.103587639E-1,-4.197634256E-1,3.259039557E0
1.271157317E1,3.053448173E0,-5.763277410E-1,-5.279498521E-1,3.151893155E0
1.272151617E1,2.846397098E0,-7.441866843E-1,-6.568259934E-1,3.014500065E0
1.273145917E1,2.664162775E0,-9.155878709E-1,-7.255120663E-1,2.909025988E0
1.274140217E1,2.365205748E0,-1.167586055E0,-7.260761033E-1,2.735807364E0
1.275134517E1,2.012735589E0,-1.548188631E0,-6.946538973E-1,2.632591237E0
1.276128917E1,1.578361725E0,-1.956495899E0,-6.185389370E-1,2.588762707E0
1.277123217E1,1.064270432E0,-2.333142541E0,-5.081405818E-1,2.614274760E0
1.278117517E1,4.163527447E-1,-2.685957979E0,-3.612480728E-1,2.741937279E0
1.279111817E1,-1.979849678E-1,-2.945775205E0,-3.360037424E-1,2.971479114E0
1.280106117E1,-8.346374094E-1,-3.192596996E0,-4.189646959E-1,3.326383411E0
1.281100417E1,-1.386395881E0,-3.289199722E0,-4.652243578E-1,3.599633600E0
1.282094817E1,-1.855156635E0,-3.316605622E0,-4.380225259E-1,3.825355242E0
1.283089117E1,-2.274534729E0,-3.314211772E0,-3.779160726E-1,4.037366526E0
1.284083417E1,-2.559374823E0,-3.261140689E0,-4.289716939E-1,4.167667788E0
1.285077717E1,-2.836685457E0,-3.382472460E0,-5.654666841E-1,4.450579389E0
1.286072017E1,-2.987957604E0,-3.677167159E0,-8.743687282E-1,4.818087756E0
1.287066317E1,-2.831342856E0,-3.850600253E0,-1.157465182E0,4.917656995E0
1.288060717E1,-2.235909777E0,-3.788285891E0,-1.297415292E0,4.586249989E0
1.289055017E1,-1.688596358E0,-3.565916864E0,-1.160409182E0,4.112623277E0
1.290049317E1,-1.142082839E0,-3.088149644E0,-9.569026157E-1,3.428802131E0
1.291043617E1,-5.765693772E-1,-2.404938748E0,-6.737624536E-1,2.563224234E0
1.292037917E1,-2.401229274E-1,-1.604103507E0,-3.450675845E-1,1.658275828E0
1.293032217E1,-5.117483139E-2,-8.356212035E-1,6.565136790E-2,8.397569655E-1
1.294026617E1,1.714310074E-1,-1.517709142E-1,3.344649015E-1,4.053267460E-1
1.295020917E1,3.635260749E-1,4.218654996E-1,5.688767072E-1,7.960794024E-1
1.296015217E1,3.321931851E-1,7.693295655E-1,8.882679983E-1,1.221163515E0
1.297009517E1,3.150889099E-2,7.527372140E-1,1.197026055E0,1.414382374E0
1.298003817E1,-4.879033685E-1,4.384078574E-1,1.426662147E0,1.570228018E0
1.298998117E1,-9.350902355E-1,9.382149875E-3,1.413949715E0,1.695209595E0
1.299992517E1,-1.185977887E0,-3.915754607E-1,1.200100082E0,1.732084033E0
1.300986817E1,-1.340285323E0,-7.672476643E-1,8.569755274E-1,1.766193868E0
1.301981117E1,-1.351222540E0,-9.994511229E-1,4.724257521E-1,1.745821008E0
1.302975417E1,-1.519583175E0,-1.121526075E0,1.396221542E-1,1.893791992E0
1.303969717E1,-1.540822016E0,-9.093405595E-1,-1.477012521E-1,1.795229344E0
1.304964017E1,-1.470174787E0,-5.470523402E-1,-3.898830207E-1,1.616381433E0
1.305958417E1,-1.285546614E0,-2.118738592E-1,-6.402747917E-1,1.451713621E0
1.306952717E1,-1.050601981E0,4.449175626E-2,-8.498904562E-1,1.352056887E0
1.307947017E1,-8.625373989E-1,2.206350347E-1,-1.017020836E0,1.351658968E0
1.308941317E1,-5.187942088E-1,2.898684070E-1,-1.134295517E0,1.280545761E0
1.309935617E1,-1.073607266E-2,2.828023392E-1,-1.116634514E0,1.151939696E0
1.310929917E1,7.619471633E-1,3.314827484E-1,-9.642210639E-1,1.272857632E0
1.311924317E1,1.923477257E0,5.478925851E-1,-6.195471431E-1,2.093750153E0
1.312918617E1,2.850110080E0,6.287858900E-1,-1.952970028E-1,2.925173513E0
1.313912917E1,3.513101889E0,6.561631384E-1,1.692360357E-1,3.577859106E0
1.314907217E1,4.017896694E0,7.557400516E-1,5.195846792E-1,4.121238298E0
1.315901517E1,4.427956080E0,8.300505611E-1,8.440525230E-1,4.583470699E0
1.316895817E1,4.593208335E0,8.290653053E-1,1.053585157E0,4.784867164E0
1.317890217E1,4.585482994E0,8.612659219E-1,1.209012408E0,4.819765998E0
1.318884517E1,4.551129432E0,9.510195127E-1,1.245045875E0,4.813248015E0
1.319878817E1,4.328163405E0,9.729462790E-1,1.154143891E0,4.583848933E0
1.320873117E1,4.075708700E0,1.060170949E0,9.907240804E-1,4.326303047E0
1.321867417E1,3.837565055E0,1.223221727E0,7.740690261E-1,4.101507016E0
1.322861817E1,3.473030920E0,1.398521252E0,4.578440022E-1,3.771926112E0
1.323856117E1,2.994697689E0,1.544563942E0,-2.059272408E-2,3.369616607E0
1.324850442E1,2.658685688E0,1.644051100E0,-4.161276269E-1,3.153518005E0
1.325844742E1,2.302007872E0,1.643392411E0,-6.890464175E-1,2.911144762E0
1.326839042E1,1.900909928E0,1.651173593E0,-8.390619975E-1,2.654026719E0
1.327833342E1,1.514721799E0,1.672847175E0,-8.480959457E-1,2.410822792E0
1.328827742E1,1.121694183E0,1.593612141E0,-7.879240767E-1,2.102051818E0
1.329822042E1,6.905374575E-1,1.376543615E0,-6.744378070E-1,1.681243784E0
1.330816342E1,2.409631723E-1,1.195654152E0,-6.274115751E-1,1.371603946E0
1.331810642E1,-5.209225953E-2,1.027127164E0,-6.724088231E-1,1.228754426E0
1.332804942E1,-3.088353127E-1,8.509569883E-1,-6.868279839E-1,1.136327297E0
1.333799242E1,-6.431270635E-1,6.164965045E-1,-6.713505502E-1,1.115523160E0
1.334793642E1,-9.722305799E-1,4.011701569E-1,-6.338280903E-1,1.227968991E0
1.335787942E1,-1.324221852E0,1.984430972E-1,-5.446178520E-1,1.445528202E0
1.336782242E1,-1.679703913E0,4.802902937E-3,-4.234974575E-1,1.732275497E0
1.337776542E1,-2.025825750E0,-9.058038712E-2,-3.553991760E-1,2.058757720E0
1.338770842E1,-2.511105473E0,-1.902862313E-1,-3.831754969E-1,2.547289345E0
1.339765142E1,-3.191980991E0,-3.986099535E-1,-4.219514537E-1,3.244329757E0
1.340759542E1,-3.903350909E0,-6.558903658E-1,-6.123648620E-1,4.005163069E0
1.341753842E1,-4.409299954E0,-7.182947749E-1,-8.622232573E-1,4.549868395E0
1.342748142E1,-4.820631110E0,-9.277627972E-1,-1.054402086E0,5.021054856E0
1.343742442E1,-5.039459063E0,-9.801886404E-1,-1.157700752E0,5.262811839E0
1.344736742E1,-4.988684766E0,-7.835798147E-1,-1.214771769E0,5.193904453E0
1.345731142E1,-5.002642069E0,-7.635899386E-1,-1.226990258E0,5.207206772E0
1.346725442E1,-4.795526090E0,-7.079039803E-1,-1.238049827E0,5.003095631E0
1.347719742E1,-4.158359678E0,-4.934330803E-1,-9.152946331E-1,4.286396585E0
1.348714042E1,-3.186871694E0,1.331390539E-1,-3.529262424E-1,3.209117345E0
1.349708342E1,-2.547888553E0,7.787821743E-1,4.321603999E-3,2.664255323E0
1.350702642E1,-2.287564664E0,1.301276209E0,2.339073372E-1,2.642155277E0
1.351697042E1,-1.933517511E0,1.877306180E0,5.172803646E-1,2.744147852E0
1.352691342E1,-1.640455647E0,2.365171250E0,8.201760026E-1,2.992961484E0
1.353685642E1,-1.454627625E0,2.581303343E0,1.001607357E0,3.127664588E0
1.354679942E1,-1.252679415E0,2.630330200E0,1.098176097E0,3.113492158E0
1.355674242E1,-8.976318026E-1,2.609054521E0,1.074586821E0,2.961020970E0
1.356668542E1,-6.141365683E-1,2.524901101E0,9.600063908E-1,2.770180782E0
1.357662942E1,-5.078143072E-1,2.309105515E0,7.307170384E-1,2.474629475E0
1.358657242E1,-8.504833639E-1,1.688648983E0,3.987945794E-1,1.932328765E0
1.359651542E1,-1.218227035E0,1.136615692E0,6.252888165E-2,1.667297875E0
1.360645842E1,-1.634495580E0,7.317968729E-1,-2.312901235E-1,1.805712487E0
1.361640142E1,-2.160791182E0,1.996417764E-1,-4.960223005E-1,2.225963498E0
1.362634542E1,-2.644735401E0,-1.466712651E-1,-8.214690413E-1,2.773256062E0
1.363628842E1,-2.858703148E0,-9.216176659E-2,-7.707764590E-1,2.962224473E0
1.364623142E1,-2.795504102E0,1.367356762E-1,-5.704245383E-1,2.856383025E0
1.365617442E1,-2.488063935E0,4.834053978E-1,-2.612664592E-1,2.548019444E0
1.366611742E1,-2.194833671E0,7.770967144E-1,-6.621533185E-3,2.328350917E0
1.367606042E1,-2.052974373E0,9.353849351E-1,2.584702476E-1,2.270783041E0
1.368600442E1,-1.893875728E0,1.081429963E0,6.652867683E-1,2.280101428E0
1.369594742E1,-1.628577029E0,1.159821537E0,1.005158005E0,2.237809588E0
1.370589042E1,-1.114478719E0,1.331283535E0,1.258543003E0,2.144366842E0
1.371583342E1,-5.589996636E-1,1.357293704E0,1.517203943E0,2.111074283E0
1.372577642E1,-4.944990277E-2,1.348667015E0,1.597362252E0,2.091151399E0
1.373571942E1,5.097567523E-1,1.354377113E0,1.675517891E0,2.213944334E0
1.374566342E1,1.146661794E0,1.372659602E0,1.659012809E0,2.439539127E0
1.375560642E1,1.746232363E0,1.316193625E0,1.503461670E0,2.653693675E0
1.376554942E1,2.227568724E0,1.218943027E0,1.321155573E0,2.862400490E0
1.377549242E1,2.507237540E0,1.076472402E0,1.220530181E0,2.989101342E0
1.378543542E1,2.661090648E0,9.106137908E-1,1.124250001E0,3.028953445E0
1.379537942E1,2.907820344E0,8.393979201E-1,9.869562078E-1,3.183408641E0
1.380532242E1,3.083983503E0,6.847995847E-1,8.467235311E-1,3.270603225E0
1.381526542E1,3.235375518E0,5.120997316E-1,6.590910586E-1,3.341302425E0
1.382520842E1,3.361945517E0,3.280609578E-1,4.037045594E-1,3.401952237E0
1.383515142E1,3.443314785E0,9.315111548E-2,2.115767475E-1,3.451066293E0
1.384509542E1,3.536497768E0,-8.345467776E-2,8.983720601E-2,3.538622878E0
1.385503842E1,3.598067195E0,-2.240334365E-1,-1.609541126E-2,3.605071092E0
1.386498142E1,3.610343424E0,-4.039812058E-1,-1.137925176E-1,3.634656681E0
1.387492442E1,3.426235653E0,-6.396719438E-1,-1.875311695E-1,3.490478318E0
1.388486742E1,3.180314042E0,-7.304216078E-1,-2.350487868E-1,3.271568594E0
1.389481042E1,2.783071167E0,-8.792031330E-1,-1.725326959E-1,2.923739182E0
1.390475442E1,2.336679522E0,-1.113238524E0,-1.233856058E-1,2.591253598E0
1.391469742E1,1.886873687E0,-1.425083253E0,-1.071801938E-2,2.364586531E0
1.392464042E1,1.354122174E0,-1.736318701E0,9.381272793E-2,2.203917041E0
1.393458342E1,8.478474391E-1,-1.998997555E0,1.171530586E-1,2.174525545E0
1.394452642E1,4.887020981E-1,-2.263246095E0,4.567727923E-2,2.315858165E0
1.395447042E1,2.223953390E-1,-2.563256205E0,-7.928941369E-2,2.574107393E0
1.396441342E1,-4.762674093E-2,-2.911332182E0,-2.372075057E-1,2.921367964E0
1.397435642E1,-4.474920917E-1,-3.266779451E0,-3.198935670E-1,3.312767581E0
1.398429942E1,-9.142443269E-1,-3.539596208E0,-3.770524389E-1,3.675153404E0
1.399424242E1,-1.346333683E0,-3.637488538E0,-4.689549180E-1,3.906898510E0
1.400418542E1,-1.658030623E0,-3.612174772E0,-5.170973833E-1,4.008024680E0
1.401412942E1,-1.815489124E0,-3.494033826E0,-5.254167652E-1,3.972447094E0
1.402407242E1,-1.835429299E0,-3.458997602E0,-5.587120171E-1,3.955454998E0
1.403401542E1,-1.888995641E0,-3.633702466E0,-5.817302028E-1,4.136485002E0
1.404395842E1,-1.874065946E0,-3.979954696E0,-7.607847369E-1,4.464409924E0
1.405390142E1,-1.547098417E0,-4.128317853E0,-6.886452985E-1,4.462146810E0
1.406384542E1,-1.100724313E0,-3.937188453E0,-4.568686867E-1,4.113608626E0
1.407378842E1,-8.776354945E-1,-3.686251685E0,-2.512302617E-1,3.797606113E0
1.408373142E1,-5.932415432E-1,-3.165926091E0,-1.067354400E-2,3.221046020E0
1.409367442E1,-1.934475285E-1,-2.316393777E0,2.359211183E-1,2.336399120E0
1.410361742E1,3.079845428E-2,-1.390276386E0,3.874400540E-1,1.443581231E0
1.411356042E1,3.417440271E-1,-5.559775302E-1,5.489125953E-1,8.527631743E-1
1.412350442E1,6.155726445E-1,1.841095251E-1,7.605800843E-1,9.956445463E-1
1.413344742E1,7.281824166E-1,5.948977670E-1,1.004072177E0,1.375614017E0
1.414339042E1,5.145666718E-1,6.623591405E-1,1.309583348E0,1.555154988E0
1.415333342E1,2.876105046E-1,5.635727710E-1,1.607122425E0,1.727187471E0
1.416327642E1,-1.729243863E-1,1.626300707E-1,1.727991389E0,1.744220635E0
1.417322042E1,-5.266785944E-1,-4.142129561E-1,1.582240183E0,1.718268522E0
1.418316342E1,-6.175881797E-1,-8.453460002E-1,1.268675058E0,1.644859089E0
1.419310642E1,-7.791619509E-1,-1.252795774E0,8.311045218E-1,1.693317845E0
1.420304942E1,-8.784453338E-1,-1.408186992E0,4.876793836E-1,1.729880918E0
1.421299242E1,-9.338903868E-1,-1.391175688E0,7.237329047E-2,1.677128183E0
1.422293642E1,-1.018786111E0,-1.110030157E0,-3.163957991E-1,1.539544865E0
1.423287942E1,-1.065117694E0,-7.274971229E-1,-4.692238533E-1,1.372551926E0
1.424282242E1,-1.013572733E0,-3.918646055E-1,-6.399075866E-1,1.261098440E0
1.425276579E1,-7.039439535E-1,-6.028011560E-2,-9.841869664E-1,1.211525801E0
1.426270879E1,-3.887872159E-1,2.134178165E-1,-1.241773188E0,1.318598997E0
1.427265179E1,4.017914236E-2,3.971864489E-1,-1.294509226E0,1.354668068E0
1.428259579E1,5.886023623E-1,5.428999400E-1,-1.143196734E0,1.395740613E0
1.429253879E1,1.276512081E0,7.626900521E-1,-6.460927713E-1,1.621300428E0
1.430248179E1,1.993792364E0,1.017703791E0,-2.100319862E-3,2.238511427E0
1.431242479E1,2.692493119E0,1.095263306E0,4.708646552E-1,2.944628063E0
1.432236779E1,3.287698742E0,1.105765490E0,7.811868417E-1,3.555549637E0
1.433231179E1,3.633614758E0,1.108357853E0,1.023788989E0,3.934432263E0
1.434225479E1,3.881468289E0,1.135115297E0,1.422150435E0,4.286816380E0
1.435219779E1,4.026121387E0,1.200385426E0,1.715026942E0,4.537829438E0
1.436214079E1,3.950091797E0,1.222292312E0,1.792421858E0,4.506661715E0
1.437208379E1,3.831052426E0,1.245122766E0,1.633638378E0,4.346960748E0
1.438202779E1,3.583022894E0,1.277725963E0,1.347315431E0,4.035578715E0
1.439197079E1,3.391955182E0,1.412364243E0,1.023800683E0,3.814223453E0
1.440191379E1,3.126715540E0,1.637260144E0,6.048617148E-1,3.580897728E0
1.441185679E1,2.768268941E0,1.803575130E0,4.495449029E-2,3.304272550E0
1.442179979E1,2.384129677E0,1.873642023E0,-4.623826841E-1,3.067312585E0
1.443174379E1,2.010087969E0,1.872201269E0,-8.180593836E-1,2.866149401E0
1.444168679E1,1.568951216E0,1.851496570E0,-1.083413047E0,2.657711666E0
1.445162979E1,1.240627134E0,1.767825546E0,-1.309845303E0,2.525877583E0
1.446157279E1,9.835367560E-1,1.660194385E0,-1.398011375E0,2.382860834E0
1.447151579E1,7.401405573E-1,1.554059820E0,-1.389062212E0,2.211877889E0
1.448145979E1,4.135244465E-1,1.412560125E0,-1.319311945E0,1.976591152E0
1.449140279E1,4.482943296E-2,1.248321193E0,-1.235756403E0,1.757102548E0
1.450134579E1,-2.921567148E-1,1.055463941E0,-1.196544902E0,1.622060226E0
1.451128879E1,-6.597477740E-1,8.375168708E-1,-1.167378406E0,1.580972478E0
1.452123179E1,-1.029220467E0,6.138792908E-1,-1.094356769E0,1.622886099E0
1.453117479E1,-1.426530585E0,3.820319277E-1,-1.009659777E0,1.788952422E0
1.454111879E1,-1.794688239E0,1.355314422E-1,-8.891637918E-1,2.007457819E0
1.455106179E1,-2.301920748E0,-8.957846671E-2,-7.992577348E-1,2.438375763E0
1.456100479E1,-2.818103591E0,-2.977633175E-1,-7.233076660E-1,2.924644392E0
1.457094779E1,-3.264420977E0,-4.444857457E-1,-7.273187828E-1,3.373870849E0
1.458089079E1,-3.710478162E0,-5.948457268E-1,-8.530076069E-1,3.853454503E0
1.459083479E1,-4.118206848E0,-8.157050022E-1,-1.009832854E0,4.317958393E0
1.460077779E1,-4.442844261E0,-9.936626717E-1,-1.119168697E0,4.688152003E0
1.461072079E1,-4.633319065E0,-1.090760073E0,-1.141307571E0,4.894893877E0
1.462066379E1,-4.912767441E0,-1.224329774E0,-1.126146837E0,5.186759492E0
1.463060679E1,-4.994700966E0,-1.245227723E0,-1.156690353E0,5.275941849E0
1.464055079E1,-4.998921486E0,-1.211227918E0,-1.097456962E0,5.259344149E0
1.465049379E1,-4.649687176E0,-9.656162095E-1,-7.441038001E-1,4.806838458E0
1.466043679E1,-4.113896865E0,-5.137597561E-1,-2.008770738E-1,4.150716577E0
1.467037979E1,-3.638767324E0,-6.179571390E-2,2.109013941E-1,3.645397886E0
1.468032279E1,-3.230114193E0,4.225227267E-1,7.079199871E-1,3.333663730E0
1.469026679E1,-2.858323663E0,9.696975660E-1,1.294629679E0,3.284264536E0
1.470020979E1,-2.417231934E0,1.605423809E0,1.872970178E0,3.453753482E0
1.471015279E1,-2.058452629E0,2.077382697E0,2.288649908E0,3.713578395E0
1.472009579E1,-2.051475731E0,2.317154499E0,2.581973142E0,4.030427143E0
1.473003879E1,-2.107517785E0,2.431397399E0,2.621867525E0,4.150604033E0
1.473998279E1,-2.261024737E0,2.299468134E0,2.498877776E0,4.079727528E0
1.474992579E1,-2.310214439E0,2.017867982E0,2.153566947E0,3.747897083E0
1.475986879E1,-2.157595679E0,1.673160294E0,1.565010193E0,3.147052809E0
1.476981179E1,-1.930020876E0,1.276216504E0,8.609206438E-1,2.468783810E0
1.477975479E1,-1.725761261E0,1.017340972E0,4.275010461E-1,2.048412001E0
1.478969879E1,-1.506684802E0,9.024338284E-1,1.060860336E-2,1.756302493E0
1.479964179E1,-1.302498862E0,9.078302237E-1,-3.824383092E-1,1.633070133E0
1.480958479E1,-1.181936876E0,9.591921660E-1,-6.152394263E-1,1.641811177E0
1.481952779E1,-1.073211409E0,1.049695370E0,-6.805749714E-1,1.648279524E0
1.482947079E1,-9.336705315E-1,1.075658177E0,-7.087778467E-1,1.590957954E0
1.483941479E1,-7.910136724E-1,1.119408214E0,-4.895523564E-1,1.455485791E0
1.484935779E1,-5.010900092E-1,1.180425956E0,-2.302364552E-1,1.302883517E0
1.485930079E1,-1.361646956E-1,1.259200522E0,1.856490604E-1,1.280075136E0
1.486924379E1,2.495609182E-1,1.410652471E0,6.102422861E-1,1.557118073E0
1.487918679E1,6.186295688E-1,1.516254647E0,9.011144042E-1,1.869154319E0
1.488913079E1,8.939322692E-1,1.566816398E0,1.082060001E0,2.103540438E0
1.489907379E1,1.015205276E0,1.563141131E0,1.213883066E0,2.224312038E0
1.490901679E1,1.258918979E0,1.645397421E0,1.343543977E0,2.469275215E0
1.491895979E1,1.414168986E0,1.572708052E0,1.415406257E0,2.544928174E0
1.492890279E1,1.668866099E0,1.500936989E0,1.316048030E0,2.601904747E0
1.493884679E1,1.977865718E0,1.372473076E0,1.145719076E0,2.666140909E0
1.494878979E1,2.267574788E0,1.216252723E0,9.708681786E-1,2.750227468E0
1.495873279E1,2.610499953E0,1.063868436E0,8.468498310E-1,2.943413102E0
1.496867579E1,2.889212750E0,8.442666042E-1,8.045802359E-1,3.115715932E0
1.497861979E1,3.165579059E0,6.443286663E-1,7.465606539E-1,3.315630108E0
1.498856279E1,3.201839982E0,3.210124317E-1,6.662819644E-1,3.286146665E0
1.499850579E1,3.127247052E0,6.192464501E-2,5.775025197E-1,3.180726009E0
1.500844879E1,3.117296260E0,-1.279666069E-1,4.479375764E-1,3.151913625E0
1.501839179E1,3.173761067E0,-3.245134521E-1,2.680924988E-1,3.201553042E0
1.502833579E1,3.279188704E0,-4.990329587E-1,1.721138891E-1,3.321405673E0
1.503827879E1,3.342721041E0,-7.014585945E-1,1.294754809E-1,3.417980693E0
1.504822179E1,3.268060284E0,-9.545208254E-1,7.218745865E-2,3.405369151E0
1.505816479E1,3.114458022E0,-1.217262391E0,8.451967500E-2,3.344954420E0
1.506810779E1,2.789523570E0,-1.493046756E0,2.464893758E-2,3.164054034E0
1.507805179E1,2.299381303E0,-1.879620508E0,-3.398167849E-2,2.970064374E0
1.508799479E1,1.847252369E0,-2.180247792E0,-1.794393539E-2,2.857646538E0
1.509793779E1,1.408027071E0,-2.469543172E0,4.524458528E-2,2.843102316E0
1.510788079E1,9.410216510E-1,-2.828247048E0,8.691067457E-2,2.981955160E0
1.511782379E1,3.113999015E-1,-3.203702905E0,2.472716967E-1,3.228285225E0
1.512776779E1,-2.682492042E-1,-3.362806812E0,3.841983211E-1,3.395296105E0
1.513771079E1,-1.072945946E0,-3.530533608E0,4.800634217E-1,3.721067246E0
1.514765379E1,-1.749885703E0,-3.528339733E0,5.241309259E-1,3.973159256E0
1.515759679E1,-2.279721794E0,-3.389016079E0,4.721743949E-1,4.111631076E0
1.516753979E1,-2.643708630E0,-3.168220246E0,2.856417837E-1,4.136230902E0
1.517748379E1,-2.661658412E0,-2.988985837E0,9.093472838E-2,4.003339976E0
1.518742679E1,-2.680879380E0,-3.137452782E0,-1.150404596E-1,4.128432937E0
1.519736979E1,-2.695552382E0,-3.544074883E0,-2.786338409E-1,4.461401824E0
1.520731279E1,-2.426559997E0,-3.855670958E0,-2.315316317E-1,4.561578548E0
1.521725679E1,-1.793859104E0,-3.852768693E0,-3.465299731E-1,4.264016898E0
1.522719979E1,-1.176496627E0,-3.669508768E0,-4.507601005E-1,3.879771073E0
1.523714279E1,-6.177519017E-1,-3.174419464E0,-5.033458650E-1,3.272905957E0
1.524708492E1,-7.806793034E-2,-2.436914685E0,-5.422023672E-1,2.497725203E0
1.525702792E1,4.120930481E-1,-1.683305798E0,-5.477969831E-1,1.817531464E0
1.526697192E1,8.485783410E-1,-1.025631154E0,-4.434715096E-1,1.403093527E0
1.527691492E1,1.248089350E0,-4.316812205E-1,-1.941526661E-1,1.334829937E0
1.528685792E1,1.569656975E0,8.916302204E-2,2.420477943E-1,1.590710596E0
1.529680092E1,1.611299091E0,1.567565426E-1,6.311449492E-1,1.737584910E0
1.530674392E1,1.317820321E0,-9.352826089E-2,8.942123508E-1,1.595309895E0
1.531668792E1,8.789832777E-1,-5.265783146E-1,1.156047159E0,1.544778741E0
1.532663092E1,4.110469812E-1,-9.726647356E-1,1.200288363E0,1.598664587E0
1.533657392E1,-1.214314663E-1,-1.527136315E0,9.647987688E-1,1.810449555E0
1.534651692E1,-5.167406666E-1,-1.893643301E0,8.284977599E-1,2.130566686E0
1.535646092E1,-7.367246139E-1,-1.940027801E0,7.861815333E-1,2.219133261E0
1.536640392E1,-9.008273059E-1,-1.685288881E0,4.184127188E-1,1.956210022E0
1.537634692E1,-1.205329247E0,-1.329581703E0,-1.075572022E-1,1.797824977E0
1.538628992E1,-1.458071051E0,-9.669546372E-1,-5.433221090E-1,1.831985637E0
1.539623292E1,-1.354376528E0,-5.613905901E-1,-9.231104600E-1,1.732520735E0
1.540617692E1,-1.269199553E0,-2.958395836E-1,-1.259349918E0,1.812277788E0
1.541611992E1,-1.073945820E0,-1.639182124E-1,-1.264605981E0,1.667170384E0
1.542606292E1,-7.209985274E-1,-8.715859652E-2,-1.158668466E0,1.367460461E0
1.543600592E1,-1.572772372E-1,3.805718780E-2,-8.742955649E-1,8.891440905E-1
1.544594892E1,6.735682529E-1,2.221526796E-1,-6.792026299E-1,9.820194585E-1
1.545589292E1,1.544724448E0,3.351641554E-1,-4.827367687E-1,1.652738158E0
1.546583592E1,2.337577654E0,4.752248508E-1,-2.970169204E-1,2.403815092E0
1.547577892E1,2.835859246E0,5.089504212E-1,-1.944082260E-2,2.881233440E0
1.548572192E1,3.106651404E0,5.044489422E-1,3.736071863E-1,3.169437491E0
1.549566592E1,3.310314018E0,5.351976952E-1,6.186960809E-1,3.409897405E0
1.550560892E1,3.386519610E0,5.159749737E-1,8.292380174E-1,3.524539819E0
1.551555192E1,3.422979339E0,6.223340723E-1,9.611758339E-1,3.609424640E0
1.552549492E1,3.350225358E0,8.034805208E-1,9.332430270E-1,3.569388385E0
1.553543792E1,3.139794007E0,9.543600270E-1,7.473488586E-1,3.365655922E0
1.554538192E1,2.805632064E0,1.007985134E0,6.315249451E-1,3.047364282E0
1.555532492E1,2.660141644E0,1.120909194E0,4.637567067E-1,2.923672566E0
1.556526792E1,2.512059739E0,1.304661162E0,1.843872678E-1,2.836650056E0
1.557521092E1,2.361723146E0,1.442952197E0,-2.003618610E-1,2.774885969E0
1.558515492E1,2.361706190E0,1.686316237E0,-5.885949071E-1,2.961040787E0
1.559509792E1,2.378467818E0,1.829936132E0,-1.030977702E0,3.173119984E0
1.560504092E1,2.250848243E0,1.801638824E0,-1.396158977E0,3.203354516E0
1.561498392E1,2.014217273E0,1.708024317E0,-1.554886762E0,3.064651878E0
1.562492792E1,1.774756250E0,1.635273845E0,-1.515797833E0,2.849828656E0
1.563487092E1,1.741427121E0,1.813638480E0,-1.801278051E0,3.092968731E0
1.564481392E1,1.375796049E0,1.728082898E0,-1.861119187E0,2.888399193E0
1.565475692E1,8.827143860E-1,1.512259537E0,-1.693201625E0,2.435784337E0
1.566469992E1,1.994134426E-1,1.200372562E0,-1.522798558E0,1.949249974E0
1.567464392E1,-6.070520818E-1,7.923263723E-1,-1.454255012E0,1.763845500E0
1.568458692E1,-1.181489564E0,4.558667663E-1,-1.522416151E0,1.980273475E0
1.569452992E1,-1.569140666E0,2.225596458E-1,-1.677803568E0,2.307977478E0
1.570447292E1,-1.933895826E0,9.042426646E-3,-1.774505843E0,2.624672516E0
1.571441692E1,-2.413977374E0,-2.913980386E-1,-1.703310438E0,2.968748225E0
1.572435992E1,-2.724891372E0,-4.761525115E-1,-1.644252244E0,3.217968248E0
1.573430292E1,-3.187979157E0,-7.138845125E-1,-1.414939064E0,3.560181843E0
1.574424592E1,-3.626105763E0,-8.467829534E-1,-1.135718949E0,3.893011933E0
1.575418892E1,-3.966751099E0,-9.276359126E-1,-8.389351130E-1,4.159258923E0
1.576413292E1,-4.262652370E0,-1.028015356E0,-5.940954559E-1,4.424926012E0
1.577407592E1,-4.333214230E0,-1.022907813E0,-3.271682341E-1,4.464316858E0
1.578401892E1,-4.493640193E0,-1.004959785E0,-9.809829846E-2,4.605688833E0
1.579396192E1,-4.620249953E0,-1.034740239E0,-3.684096694E-2,4.734844691E0
1.580390592E1,-4.587008532E0,-1.020166638E0,1.191921289E-1,4.700595070E0
1.581384892E1,-4.193056471E0,-6.587663189E-1,5.245507926E-1,4.276780233E0
1.582379192E1,-3.593489410E0,3.457049310E-2,9.826813084E-1,3.725590398E0
1.583373492E1,-3.086907696E0,7.250187805E-1,1.359538450E0,3.450071905E0
1.584367892E1,-2.764814991E0,1.308849230E0,1.583689123E0,3.444613110E0
1.585362192E1,-2.591808159E0,1.760182942E0,1.772166665E0,3.599484437E0
1.586356492E1,-2.540862538E0,2.025688341E0,2.010977331E0,3.821442858E0
1.587350792E1,-2.478010232E0,2.119595793E0,2.199489955E0,3.933316298E0
1.588345092E1,-2.503529236E0,2.071902979E0,2.220653222E0,3.935954944E0
1.589339492E1,-2.572498899E0,1.854218157E0,1.989194698E0,3.743363608E0
1.590333792E1,-2.503133379E0,1.604953108E0,1.334939214E0,3.259388577E0
1.591328092E1,-2.392438570E0,1.218042556E0,6.255516489E-1,2.756574839E0
1.592322392E1,-2.316172167E0,7.210371190E-1,5.349807635E-2,2.426398582E0
1.593316792E1,-2.094727585E0,2.153646469E-1,-3.161590965E-1,2.129371307E0
1.594311092E1,-1.645494778E0,-2.709979802E-2,-5.879972485E-1,1.747606428E0
1.595305392E1,-1.079980731E0,1.088488430E-2,-8.272454325E-1,1.360445466E0
1.596299692E1,-5.936935329E-1,1.174354792E-1,-9.432576263E-1,1.120713189E0
1.597294092E1,-2.638655466E-1,2.692569718E-1,-7.812407092E-1,8.674453235E-1
1.598288392E1,-2.064950055E-1,3.799678606E-1,-4.462168870E-1,6.213897912E-1
1.599282692E1,-1.980633205E-1,4.894593126E-1,-9.487633646E-2,5.364708909E-1
1.600276992E1,3.056515038E-2,7.154036191E-1,2.508408006E-1,7.587210778E-1
1.601271392E1,2.668026030E-1,8.810157698E-1,5.273720741E-1,1.060892888E0
1.602265692E1,5.002556115E-1,9.915243450E-1,7.784749762E-1,1.356244628E0
1.603259992E1,8.340205282E-1,1.093111531E0,1.004933984E0,1.703048846E0
1.604254292E1,1.244985064E0,1.233327177E0,1.278454526E0,2.169223297E0
1.605248592E1,1.678230999E0,1.323557024E0,1.535966488E0,2.632005991E0
1.606242992E1,2.050982811E0,1.379338000E0,1.706653583E0,3.003626185E0
1.607237292E1,2.406820382E0,1.443951194E0,1.847086308E0,3.359986195E0
1.608231592E1,2.598794997E0,1.447383218E0,1.951712877E0,3.557785374E0
1.609225892E1,2.686555856E0,1.385327303E0,1.902371147E0,3.571516497E0
1.610220292E1,2.743855062E0,1.355552111E0,1.850681176E0,3.576490310E0
1.611214592E1,2.865860140E0,1.404134287E0,1.783893694E0,3.656094111E0
1.612208892E1,2.936074090E0,1.400892298E0,1.582675216E0,3.617719051E0
1.613203192E1,2.997566918E0,1.332195993E0,1.272605410E0,3.518476676E0
1.614197592E1,2.929746233E0,1.181884544E0,9.729859670E-1,3.305596127E0
1.615191892E1,2.808438143E0,9.613228914E-1,7.156933486E-1,3.053470726E0
1.616186192E1,2.650110161E0,6.479714817E-1,4.973349273E-1,2.773137742E0
1.617180492E1,2.442407121E0,2.470577252E-1,3.006124464E-1,2.473208019E0
1.618174892E1,2.256827606E0,1.465993443E-1,1.910671270E-1,2.269640689E0
1.619169192E1,2.287520810E0,1.706878263E-1,1.632484138E-1,2.299681682E0
1.620163492E1,2.056995503E0,-8.439666420E-2,1.242555984E-1,2.062472484E0
1.621157792E1,1.739622670E0,-4.817205226E-1,1.056928083E-2,1.805118668E0
1.622152192E1,1.470891656E0,-6.979336005E-1,-1.017275190E-1,1.631251686E0
1.623146492E1,1.139616483E0,-8.384205580E-1,-2.079277195E-1,1.430003041E0
1.624140792E1,8.526368934E-1,-1.139432296E0,-3.137458044E-1,1.457303009E0
1.625135154E1,5.164968377E-1,-1.505206333E0,-3.462932340E-1,1.628598813E0
1.626129554E1,1.823746562E-1,-1.855069512E0,-4.024496739E-1,1.906963332E0
1.627123854E1,-1.893351817E-1,-2.178247752E0,-3.355645435E-1,2.212061175E0
1.628118154E1,-5.910272026E-1,-2.499352862E0,-2.015628791E-1,2.576180405E0
1.629112454E1,-1.152770965E0,-2.775865059E0,-4.320756152E-2,3.006023056E0
1.630106754E1,-1.657736508E0,-2.918253823E0,3.227180645E-2,3.356387519E0
