"Time (s)","Linear Acceleration x (m/s^2)","Linear Acceleration y (m/s^2)","Linear Acceleration z (m/s^2)","Absolute acceleration (m/s^2)"
4.677916673E-3,-8.150008805E0,3.934419504E0,-1.629164674E0,9.195459635E0
1.461991668E-2,-7.883844718E0,3.311609761E0,-1.784232833E0,8.735287835E0
2.456191668E-2,-4.816298031E0,2.560725530E0,2.547916912E-2,5.454786077E0
3.450491666E-2,-2.120643176E0,1.599992330E0,1.479722559E0,3.040835706E0
4.444691667E-2,-1.769042571E-1,6.232289886E-1,1.855957119E0,1.965778806E0
5.438991668E-2,1.661854702E0,-5.204080403E-2,1.527068780E0,2.257522615E0
6.433191668E-2,3.571443653E0,-2.696238846E-1,1.088314767E0,3.743305469E0
7.427391666E-2,5.558101244E0,1.324786109E-1,2.552314018E-1,5.565535292E0
8.421691667E-2,7.076670511E0,8.658247036E-1,-9.031544977E-1,7.186418161E0
9.415891668E-2,7.813496867E0,1.626013024E0,-2.204505697E0,8.279764309E0
1.041009167E-1,7.736544001E0,2.091187681E0,-3.742489913E0,8.844965220E0
1.140439167E-1,7.412028210E0,2.064610332E0,-5.298649760E0,9.342187500E0
1.239859167E-1,6.329916168E0,1.309818991E0,-5.099489502E0,8.233362477E0
1.339289167E-1,4.694908080E0,-2.164814651E-2,-2.282175871E0,5.220244939E0
1.438709167E-1,3.651732063E0,-1.005584267E0,7.837695569E-1,3.867898848E0
1.538129167E-1,3.366395833E0,-1.330604673E0,2.098028046E0,4.183879944E0
1.637559167E-1,3.484915971E0,-1.031075789E0,1.698673450E0,4.011639078E0
1.736979167E-1,3.876288825E0,-7.148156816E-1,2.906405318E-1,3.952347206E0
1.836409167E-1,4.097355969E0,-8.017971075E-1,-2.400503635E0,4.815975731E0
1.935829167E-1,4.167394211E0,-1.618065489E0,-5.456968971E0,7.054347652E0
2.035253750E-1,3.518913437E0,-2.939938515E0,-6.472626237E0,7.932268317E0
2.134683750E-1,2.264486435E0,-3.797734407E0,-5.347390396E0,6.938679232E0
2.234103750E-1,1.156485408E0,-3.744490246E0,-3.180722178E0,5.047341802E0
2.333523750E-1,5.177803016E-1,-3.318164490E0,-1.106620061E0,3.535946830E0
2.432953750E-1,6.892845453E-1,-3.095674426E0,4.479690783E-1,3.202965756E0
2.532373750E-1,1.458448927E0,-3.362208642E0,6.228196836E-1,3.717448666E0
2.631793750E-1,3.462044002E0,-3.603886929E0,-7.854151095E-1,5.058717877E0
2.731223750E-1,5.655767287E0,-3.706555265E0,-2.634048445E0,7.257028782E0
2.830643750E-1,7.133392012E0,-3.832787295E0,-4.340631423E0,9.187851827E0
2.930073750E-1,7.801624095E0,-3.622052473E0,-5.483985447E0,1.020091658E1
3.029493750E-1,8.096447725E0,-3.079147856E0,-5.790188343E0,1.041920814E1
3.128913750E-1,7.794838986E0,-2.432070998E0,-5.793113705E0,1.001172565E1
3.228343750E-1,7.232685919E0,-1.600090563E0,-6.459179395E0,9.828175511E0
3.327763750E-1,6.545217081E0,-5.780873144E-1,-5.650837499E0,8.666372714E0
3.427183750E-1,6.152010539E0,1.688810366E-1,-2.780527629E0,6.753302035E0
3.526613750E-1,5.996459985E0,7.123276913E-1,-2.113561467E0,6.397818782E0
3.626033750E-1,4.299902350E0,4.531264687E-1,-2.026564254E0,4.775086019E0
3.725463750E-1,1.354806445E0,-8.057860780E-1,-4.879138935E-1,1.650106564E0
3.824883750E-1,-1.840851276E0,-2.832116443E0,3.483957027E0,4.852584212E0
3.924303750E-1,-3.164592926E0,-5.542133083E0,7.976918943E0,1.021572921E1
4.023733750E-1,-3.139321552E0,-8.069245309E0,9.362813133E0,1.275265970E1
4.123153750E-1,-2.242105633E0,-1.038081455E1,7.812491730E0,1.318420932E1
4.222573750E-1,-9.318822337E-1,-1.239833082E1,4.716503309E0,1.329783498E1
4.322003750E-1,6.175240065E-1,-1.136466238E1,1.813976157E0,1.152507685E1
4.421423750E-1,1.203892586E0,-8.445325940E0,3.649130344E-2,8.530780692E0
4.520853750E-1,7.359516120E-1,-5.725033988E0,2.769440138E-1,5.778783343E0
4.620273750E-1,-8.463881202E-1,-4.381642039E0,1.443463683E0,4.690282211E0
4.719693750E-1,-2.609137844E0,-4.260525153E0,2.417763007E0,5.550247997E0
4.819123750E-1,-3.044162503E0,-4.181325787E0,3.429542838E0,6.205817815E0
4.918543750E-1,-2.634597498E0,-3.912097759E0,4.929003990E0,6.822073965E0
5.017963750E-1,-6.706297347E-1,-2.196367396E0,3.840980706E0,4.475143211E0
5.117393750E-1,4.700714073E-1,-4.911240149E-1,3.469062707E0,3.535048230E0
5.216813750E-1,3.942850605E-1,5.971866596E-1,2.659074528E0,2.753682981E0
5.316243750E-1,-4.238602772E-1,1.388710794E0,2.101166685E0,2.554031449E0
5.415663750E-1,-7.576623237E-1,2.334760466E0,2.474355723E0,3.485339994E0
5.515083750E-1,-1.726868724E0,2.968865275E0,3.594911453E0,4.971883442E0
5.614513750E-1,-3.131316421E0,3.543481683E0,4.090491923E0,6.252481838E0
5.713933750E-1,-4.389708273E0,4.282248729E0,4.197247755E0,7.431290710E0
5.813353750E-1,-5.296027869E0,4.742918690E0,4.556806786E0,8.444387306E0
5.912783750E-1,-5.922507325E0,5.023614863E0,5.233212985E0,9.364791372E0
6.012203750E-1,-6.580851767E0,5.098128271E0,5.706821081E0,1.009288505E1
6.111633750E-1,-7.212208970E0,5.351154249E0,5.905522918E0,1.074830270E1
6.211053750E-1,-7.375405344E0,5.799657909E0,5.842737855E0,1.105306390E1
6.310473750E-1,-7.490728224E0,6.175558446E0,5.843613768E0,1.133121147E1
6.409903750E-1,-7.688823119E0,6.340765677E0,5.725290096E0,1.149357460E1
6.509323750E-1,-8.033638104E0,6.387459202E0,5.599162731E0,1.169143274E1
6.608743750E-1,-8.291040139E0,6.364597174E0,5.258001087E0,1.170025723E1
6.708173750E-1,-8.158662100E0,6.288567583E0,4.898853699E0,1.140651643E1
6.807593750E-1,-7.631011698E0,6.030273848E0,4.830791524E0,1.085970022E1
6.907023750E-1,-7.175586104E0,5.574876321E0,4.496367626E0,1.013832352E1
7.006443750E-1,-6.574357265E0,4.718215374E0,3.218546062E0,8.708775374E0
7.105863750E-1,-5.272553052E0,3.500361975E0,7.236405918E-1,6.369929776E0
7.205293750E-1,-3.506562655E0,1.764453456E0,-4.934742447E0,6.305629285E0
7.304713750E-1,-3.878776816E-1,-8.579724777E-1,-1.367134919E1,1.370373506E1
7.404133750E-1,4.461975473E0,-4.137543005E0,-1.160235520E1,1.310126457E1
7.503563750E-1,9.399249473E0,-7.551386070E0,-8.770294890E0,1.490930564E1
7.602983750E-1,1.368639758E1,-1.246179065E1,-1.145899200E1,2.176975431E1
7.702413750E-1,1.331010002E1,-1.774417346E1,-8.029059734E0,2.358983371E1
7.801833750E-1,1.186218324E1,-1.678537276E1,-6.088165376E0,2.143655494E1
7.901253750E-1,9.826402609E0,-9.882178030E0,-4.811946533E0,1.474348874E1
8.000683750E-1,7.118269942E0,-3.266287993E0,-3.390636927E0,8.534332018E0
8.100103750E-1,4.791951394E0,1.583563993E0,-2.257396832E0,5.528680995E0
8.199523750E-1,2.826831437E0,5.006545671E0,-1.389000231E-1,5.751153688E0
8.298953750E-1,2.025028775E0,6.945637332E0,2.898113089E0,7.793694821E0
8.398373750E-1,1.332929234E0,6.530874445E0,4.729765964E0,8.173108799E0
8.497803750E-1,3.983988690E-1,3.835536071E0,5.501934060E0,6.718730312E0
8.597223750E-1,6.442082137E-2,-4.220110953E-1,6.232578154E0,6.247181273E0
8.696643750E-1,2.509317979E-1,-5.144743443E0,7.079356138E0,8.754920627E0
8.796073750E-1,5.375023752E-1,-9.673613110E0,5.522794586E0,1.115208319E1
8.895493750E-1,1.192018061E0,-1.295534477E1,3.342935050E-1,1.301436196E1
8.994913750E-1,4.229177061E-1,-1.198693008E1,-4.153016492E0,1.269302557E1
9.094343750E-1,-3.235127596E0,-6.061626619E0,-4.803084201E0,8.383256268E0
9.193763750E-1,-8.993225250E0,6.105761987E-1,-2.938299540E0,9.480744057E0
9.293193750E-1,-1.412949608E1,5.887746797E0,-1.588837304E0,1.538936729E1
9.392613750E-1,-1.559319917E1,9.530719439E0,-9.006162214E-1,1.829736546E1
9.492033750E-1,-1.469809453E1,1.058760952E1,3.832176261E0,1.851531887E1
9.591463750E-1,-1.215520008E1,9.513976521E0,8.745216182E0,1.774101024E1
9.690883750E-1,-8.468514243E0,6.266242329E0,1.101931412E1,1.524489456E1
9.790303750E-1,-5.828278860E0,1.669530342E0,1.199528224E1,1.344034829E1
9.889733750E-1,-3.647325894E0,-3.122692655E0,1.021371282E1,1.128601458E1
9.989153750E-1,-1.293131184E0,-7.452576311E0,7.722705395E0,1.080986866E1
1.008857375E0,2.881009398E-1,-1.049066268E1,5.126841023E0,1.167996166E1
1.018800375E0,2.965324786E0,-1.125856348E1,1.929536726E0,1.180133529E1
1.028742375E0,6.701966314E0,-8.622797121E0,-1.931573896E0,1.109053472E1
1.038685375E0,7.935584391E0,-3.260838972E0,-4.915881668E0,9.887995904E0
1.048627375E0,5.216139700E0,9.375981063E-1,-3.590613749E0,6.401539711E0
1.058569375E0,2.432658935E0,2.570015586E0,-1.322663569E-1,3.541229165E0
1.068512375E0,7.874510369E-1,3.732399958E0,1.211544253E0,4.002340322E0
1.078454375E0,-1.218643869E0,4.044926033E0,1.067645445E0,4.357337064E0
1.088396375E0,-3.804083021E0,3.569504131E0,1.238192938E0,5.361485720E0
1.098339375E0,-6.217779436E0,3.348542529E0,1.218116523E0,7.166402588E0
1.108281375E0,-7.213340991E0,3.211689616E0,3.184176932E-1,7.902444449E0
1.118224375E0,-6.035727546E0,2.899029055E0,-7.851729617E-1,6.741726267E0
1.128166375E0,-3.775659413E0,1.948127949E0,-7.323292619E-1,4.311277381E0
1.138108375E0,-9.595821022E-1,9.062301332E-1,4.984832474E-1,1.410863712E0
1.148051375E0,8.470718059E-1,4.259287298E-2,8.618695738E-1,1.209199719E0
1.157993375E0,2.166386383E0,-4.534995210E-1,6.536565833E-1,2.307847201E0
1.167935375E0,3.418265021E0,-2.640204978E-1,5.960599011E-1,3.479874995E0
1.177878375E0,4.270671242E0,-1.205052674E-2,3.039983498E-1,4.281494256E0
1.187820375E0,4.881516997E0,6.124303508E-1,-1.793949151E-1,4.923054099E0
1.197763375E0,5.202867106E0,1.355206833E0,-1.361479580E0,5.546173305E0
1.207705417E0,4.925320244E0,1.788596025E0,-3.477169579E0,6.288764865E0
1.217647417E0,4.261746637E0,1.453730078E0,-5.803498360E0,7.345502620E0
1.227590417E0,3.557798590E0,4.231653357E-1,-5.959887990E0,6.953938780E0
1.237532417E0,2.844198837E0,-7.056975335E-1,-2.335127086E0,3.747038102E0
1.247474417E0,2.920333678E0,-1.330619876E0,1.398397145E0,3.500630317E0
1.257417417E0,4.048855654E0,-1.288189555E0,1.870204298E0,4.642233143E0
1.267359417E0,5.753390645E0,-9.672458285E-1,1.291209642E0,5.975306750E0
1.277302417E0,7.324116492E0,-4.202809042E-1,-2.929642153E-1,7.342012425E0
1.287244417E0,7.632743644E0,-3.264383554E-1,-2.551933656E0,8.054669634E0
1.297186417E0,7.303058329E0,-7.297944939E-1,-5.182254501E0,8.984599194E0
1.307129417E0,6.334582247E0,-1.355158886E0,-6.401074444E0,9.106983138E0
1.317071417E0,4.695614716E0,-2.265832318E0,-4.864066567E0,7.130353232E0
1.327013417E0,2.878273194E0,-3.150734147E0,-1.810242417E0,4.635575461E0
1.336956417E0,2.154380149E0,-4.046850936E0,7.040956888E-1,4.638330202E0
1.346898417E0,2.554447959E0,-4.875648147E0,1.939069735E0,5.835849609E0
1.356841417E0,3.683106468E0,-5.169877115E0,1.940869069E0,6.637761323E0
1.366783417E0,5.310079898E0,-4.609860620E0,1.094256123E0,7.116541289E0
1.376725417E0,6.715794395E0,-3.847027019E0,-7.575254989E-1,7.776590263E0
1.386668417E0,7.560841602E0,-3.652167973E0,-2.043974046E0,8.641902946E0
1.396610417E0,8.644764526E0,-4.365677971E0,-2.860784172E0,1.009827629E1
1.406552417E0,9.468128504E0,-4.833606666E0,-3.556510448E0,1.120972691E1
1.416495417E0,1.017641577E1,-3.813012596E0,-3.570324495E0,1.143878140E1
1.426437417E0,9.233602531E0,-2.183366697E0,-4.325945556E0,1.042786223E1
1.436379417E0,6.885063686E0,-1.015102950E0,-6.090784929E0,9.248361856E0
1.446322417E0,5.035703396E0,-2.729848641E-1,-4.301622893E0,6.628483156E0
1.456264417E0,2.638456953E0,1.049785709E-1,-2.156708071E0,3.409379019E0
1.466207417E0,-6.810758585E-1,-3.057158232E-1,-2.850157442E0,2.946306830E0
1.476149417E0,-3.663374454E0,-1.661311496E0,-3.315706320E0,5.212885639E0
1.486091417E0,-5.635514871E0,-3.787390097E0,-1.160501568E0,6.888404423E0
1.496034417E0,-6.664449994E0,-6.493778540E0,3.400553513E0,9.906958042E0
1.505976417E0,-7.184909490E0,-9.015171604E0,7.137153525E0,1.355858414E1
1.515918417E0,-7.129512384E0,-1.073662698E1,7.101908848E0,1.471537342E1
1.525861417E0,-5.374778754E0,-1.074554515E1,4.215919669E0,1.273298731E1
1.535803417E0,-1.724195084E0,-8.334528220E0,-4.760729894E-3,8.511006521E0
1.545746417E0,1.171629551E0,-5.634126157E0,-3.045964322E0,6.511066887E0
1.555688417E0,1.343723486E0,-4.296992483E0,-2.391864228E0,5.098112562E0
1.565630417E0,-5.558544463E-1,-3.944207159E0,8.379893258E-2,3.984064073E0
1.575573417E0,-2.948664315E0,-3.150824195E0,2.452799377E0,4.963722306E0
1.585515417E0,-2.637215297E0,-1.518035417E0,4.300793173E0,5.268411332E0
1.595457417E0,-1.137084347E0,-3.176283556E-1,4.037501239E0,4.206574002E0
1.605400417E0,-1.918441050E0,1.416119617E-1,3.593697571E0,4.076166365E0
1.615342417E0,-2.656007955E0,4.857866764E-3,3.489704840E0,4.385480787E0
1.625285417E0,-2.626116697E0,3.382760435E-1,2.554912813E0,3.679469944E0
1.635227417E0,-1.945661593E0,1.711951892E0,2.391047079E0,3.526114639E0
1.645169417E0,-9.271672583E-1,2.629892828E0,2.022747630E0,3.444921391E0
1.655112417E0,-1.297045748E0,2.930515142E0,1.869754501E0,3.710286858E0
1.665054417E0,-2.885285760E0,3.120283018E0,1.935337749E0,4.669750767E0
1.674996417E0,-4.813907104E0,3.302231412E0,3.018992578E0,6.572119148E0
1.684939417E0,-5.993015390E0,3.554148173E0,4.345409768E0,8.211625220E0
1.694881417E0,-6.150538795E0,4.085705684E0,4.742491551E0,8.775724729E0
1.704823417E0,-6.219913670E0,4.591070008E0,5.385810696E0,9.421900378E0
1.714766417E0,-6.088398095E0,5.045402758E0,5.811244751E0,9.813014109E0
1.724708417E0,-5.698336186E0,5.470121114E0,6.105419340E0,9.983456596E0
1.734651417E0,-5.361798520E0,5.441998345E0,6.030516508E0,9.733003581E0
1.744593417E0,-5.602371683E0,5.325372121E0,6.316213803E0,9.982019511E0
1.754535417E0,-5.829735401E0,5.454658152E0,6.559534573E0,1.033279266E1
1.764478417E0,-5.783497374E0,5.618773123E0,6.622769871E0,1.043458356E1
1.774420417E0,-5.707599345E0,5.823560742E0,6.524320886E0,1.044305094E1
1.784362417E0,-5.874514548E0,5.800665384E0,5.862568102E0,1.012557874E1
1.794305417E0,-6.197404228E0,5.719673846E0,5.346055477E0,9.985128804E0
1.804247417E0,-6.169822912E0,5.247418211E0,3.609556681E0,8.867412931E0
1.814189417E0,-5.563000626E0,4.253450607E0,-2.081813425E-2,7.002803112E0
1.824132417E0,-3.898290728E0,2.587575944E0,-6.698342210E0,8.170679790E0
1.834074417E0,-5.697237495E-1,-1.836873561E-1,-1.089573790E1,1.091216892E1
1.844017417E0,4.343411774E0,-3.985375650E0,-1.176059372E1,1.315522746E1
1.853959417E0,9.204799147E0,-9.002190201E0,-1.384052668E1,1.890311970E1
1.863901417E0,1.123297255E1,-1.539608485E1,-1.175088032E1,2.238978092E1
1.873844417E0,1.009239713E1,-1.999156249E1,-1.001513553E1,2.453206045E1
1.883786417E0,9.911000125E0,-1.690780644E1,-7.753921341E0,2.107664912E1
1.893729417E0,7.588953846E0,-8.718719525E0,-4.795046033E0,1.251402242E1
1.903671417E0,2.757067138E0,-1.414884101E0,-4.455207321E0,5.426987055E0
1.913613417E0,-1.337621332E0,4.099324434E0,-3.392232925E0,5.486431979E0
1.923556417E0,-2.814878851E0,7.919550156E0,2.464917147E-1,8.408541835E0
1.933498417E0,-3.130428522E0,1.032600275E1,4.997107680E0,1.189104708E1
1.943440417E0,-3.287249676E0,1.033162543E1,8.229184198E0,1.361131761E1
1.953383417E0,-3.298752611E0,7.635035752E0,9.368048730E0,1.252740503E1
1.963325417E0,-3.952000035E0,3.371019226E0,7.901879286E0,9.456308537E0
1.973267417E0,-3.797023093E0,-1.172873692E0,6.054887702E0,7.242560469E0
1.983210417E0,-2.532838112E0,-5.587901579E0,3.260472937E0,6.947704421E0
1.993152417E0,8.005721158E-1,-1.054297889E1,-3.367418511E0,1.109661331E1
2.003095417E0,6.134089408E0,-1.524355321E1,-1.079259769E1,1.965891992E1
2.013037417E0,8.061127034E0,-1.600670607E1,-9.967863128E0,2.050743045E1
2.022979417E0,3.264112244E0,-1.103540683E1,-4.123592134E0,1.222451000E1
2.032922417E0,-2.748159489E0,-3.012934570E0,1.399372461E0,4.311426514E0
2.042864417E0,-6.450654740E0,3.891173497E0,4.673331854E0,8.865224666E0
2.052806417E0,-9.445982759E0,8.811841112E0,5.157038383E0,1.390935581E1
2.062749417E0,-1.052643127E1,1.122204411E1,4.365357251E0,1.599363539E1
2.072691417E0,-1.067946927E1,1.048548906E1,6.079787486E0,1.615426757E1
2.082633417E0,-8.327453674E0,7.900086529E0,8.665243814E0,1.438208268E1
2.092576417E0,-5.484091281E0,3.816423862E0,1.063850017E1,1.256256479E1
2.102518417E0,-3.128722012E0,-1.079548622E0,1.051692720E1,1.102542899E1
2.112461417E0,-1.065912184E0,-5.647219242E0,8.481050674E0,1.024477791E1
2.122403417E0,3.154719025E-1,-8.671558222E0,6.106998088E0,1.061088451E1
2.132345417E0,2.145796436E0,-9.372841108E0,3.533917977E0,1.024417732E1
2.142288417E0,4.560292604E0,-7.714255584E0,3.804374651E-1,8.969433678E0
2.152230417E0,5.582038575E0,-3.843985298E0,-3.188929914E0,7.490303841E0
2.162173417E0,4.417017109E0,-1.455430448E-2,-5.063625605E0,6.719416362E0
2.172115417E0,2.194935413E0,1.533045219E0,-3.390802696E0,4.320360174E0
2.182057417E0,2.437748060E-1,1.749440730E0,-9.256955141E-1,1.994211927E0
2.192000417E0,-9.632752767E-1,1.802469714E0,2.273444223E-1,2.056327263E0
2.201942250E0,-2.228109152E0,2.278737123E0,1.880709552E0,3.700565050E0
2.211884250E0,-3.534615549E0,2.632774921E0,2.159477313E0,4.907988705E0
2.221827250E0,-4.637835454E0,2.901333443E0,1.261738506E0,5.614199632E0
2.231769250E0,-4.661715191E0,3.017178479E0,3.226551338E-1,5.562289172E0
2.241711250E0,-3.844343147E0,2.670585941E0,-5.390380003E-2,4.681229446E0
2.251654250E0,-2.004740398E0,2.118971311E0,-3.501488149E-1,2.937963184E0
2.261596250E0,1.280461290E-1,1.549923792E0,-1.995645931E-1,1.567955866E0
2.271539250E0,1.998350561E0,9.831145871E-1,6.029692635E-2,2.227903718E0
2.281481250E0,3.315885538E0,6.142172599E-1,1.460744105E-1,3.375455151E0
2.291423250E0,4.321205218E0,7.598059130E-1,4.982891929E-1,4.415700588E0
2.301366250E0,4.639565353E0,1.376583084E0,8.423058866E-1,4.912232370E0
2.311308250E0,4.238065413E0,2.259592754E0,6.121473455E-1,4.841661103E0
2.321250250E0,3.647041719E0,2.820901483E0,-5.472743882E-1,4.643049400E0
2.331193250E0,3.183149357E0,2.805240886E0,-2.368746237E0,4.859297788E0
2.341135250E0,2.361091647E0,1.843837595E0,-3.666769347E0,4.734943325E0
2.351077250E0,1.287248738E0,3.762811911E-1,-3.198051571E0,3.467871205E0
2.361020250E0,9.889944009E-1,-7.797794169E-1,-1.300956658E0,1.810705413E0
2.370962250E0,1.710060318E0,-1.153069173E0,-3.000106949E-1,2.084197981E0
2.380905250E0,3.471983099E0,-9.099431151E-1,-1.320142250E0,3.824321989E0
2.390847250E0,5.804889413E0,-4.869982195E-1,-3.101467847E0,6.599470522E0
2.400789250E0,6.889992889E0,-3.849327314E-1,-4.045103788E0,7.998939922E0
2.410732250E0,6.368468031E0,-6.580918425E-1,-4.137548560E0,7.622976979E0
2.420674250E0,5.597631345E0,-7.402978474E-1,-4.408947367E0,7.163821220E0
2.430617250E0,3.926507929E0,-9.936740738E-1,-4.193838243E0,5.830362930E0
2.440559250E0,1.698072064E0,-1.909502996E0,-3.252075750E0,4.135897377E0
2.450501250E0,4.040921567E-1,-2.791425084E0,-1.383461748E0,3.141545938E0
2.460444250E0,5.449602064E-1,-3.386941779E0,-4.087203741E-4,3.430503813E0
2.470386250E0,1.837379199E0,-4.143569731E0,3.006816629E-1,4.542636007E0
2.480328250E0,4.132456512E0,-4.695557413E0,2.196836928E-1,6.258891050E0
2.490271250E0,6.035054532E0,-5.032917783E0,-3.823804218E-1,7.867551042E0
2.500213250E0,6.757180987E0,-5.255020176E0,-1.724121117E0,8.731971459E0
2.510155250E0,6.833267296E0,-4.756255020E0,-3.928708529E0,9.205990140E0
2.520098250E0,6.779539570E0,-3.541318797E0,-6.978621476E0,1.035394868E1
2.530040250E0,7.443237138E0,-2.436370456E0,-8.450503065E0,1.152166143E1
2.539983250E0,8.549943153E0,-1.936259270E0,-6.475343438E0,1.089865590E1
2.549925250E0,8.812859112E0,-1.407891415E0,-4.960015283E0,1.021030830E1
2.559867250E0,8.317621581E0,-3.371206337E-1,-5.310976861E0,9.874358425E0
2.569810250E0,7.374437045E0,9.111909109E-1,-3.829508176E0,8.359289652E0
2.579752250E0,6.717369050E0,1.965536279E0,-1.967742434E0,7.270377576E0
2.589694250E0,5.128873515E0,1.428202888E0,-2.540516968E0,5.899095989E0
2.599637250E0,2.210626270E0,-9.108201975E-1,-3.440218685E0,4.189458979E0
2.609579250E0,-1.285287875E0,-3.755240936E0,-1.454275038E0,4.227140321E0
2.619522250E0,-4.359340174E0,-6.942688581E0,4.579020066E0,9.390005126E0
2.629464250E0,-6.070008602E0,-9.910953348E0,9.792380000E0,1.519745725E1
2.639406250E0,-6.746332648E0,-1.281452627E1,9.573553802E0,1.736024252E1
2.649349250E0,-6.249555545E0,-1.527430255E1,6.264270648E0,1.765226188E1
2.659291250E0,-4.145986092E0,-1.500238480E1,1.617981874E0,1.564859789E1
2.669233250E0,-1.372911032E0,-1.107618064E1,-1.355144852E0,1.124291242E1
2.679176250E0,-2.419820496E-1,-6.712210636E0,-7.926077695E-1,6.763176326E0
2.689118250E0,-9.039030875E-1,-4.106349279E0,1.092319672E0,4.344226912E0
2.699061250E0,-2.912460694E0,-3.608545990E0,2.323754983E0,5.186893933E0
2.709003250E0,-3.217277508E0,-2.796523272E0,3.595316080E0,5.576532497E0
2.718945250E0,-7.075052002E-1,-1.009417702E0,3.029292741E0,3.270489599E0
2.728888250E0,7.185678399E-1,3.526104927E-2,2.024489661E0,2.148520764E0
2.738830250E0,7.451767641E-1,5.508316880E-1,2.487674510E0,2.654661641E0
2.748772250E0,3.989812517E-1,1.123588681E0,2.267910711E0,2.562236631E0
2.758715250E0,2.442060381E-2,1.790898659E0,1.607229137E0,2.406470417E0
2.768657250E0,-8.171676832E-1,2.512056230E0,1.743218708E0,3.164964611E0
2.778600250E0,-2.120127890E0,3.112903832E0,2.121535900E0,4.322733754E0
2.788542250E0,-3.586021346E0,3.871225137E0,3.000516254E0,6.070340266E0
2.798484250E0,-4.662904514E0,4.757616252E0,3.885131277E0,7.711798490E0
2.808427250E0,-5.646543889E0,5.180347724E0,4.305161920E0,8.789418615E0
2.818369250E0,-6.574998704E0,5.035678838E0,4.727843984E0,9.536308408E0
2.828311250E0,-7.342278528E0,4.927040495E0,5.379295728E0,1.034995674E1
2.838254250E0,-7.701834344E0,5.051420127E0,5.995420350E0,1.099000285E1
2.848196250E0,-7.616503002E0,5.353873204E0,6.426968254E0,1.131286865E1
2.858139250E0,-7.548015150E0,5.620396895E0,6.375324476E0,1.136688859E1
2.868081250E0,-7.655476449E0,5.546169416E0,6.006400251E0,1.120014102E1
2.878023250E0,-7.684186277E0,5.455328828E0,5.739697051E0,1.103410411E1
2.887966250E0,-7.433065907E0,5.429642009E0,5.584141234E0,1.076634174E1
2.897908250E0,-6.804650438E0,5.574755868E0,5.224991215E0,1.023140771E1
2.907850250E0,-5.933471439E0,5.650979587E0,4.901588150E0,9.548047968E0
2.917793250E0,-5.131703568E0,5.502666131E0,4.017437980E0,8.529567631E0
2.927735250E0,-4.420802012E0,5.058147349E0,2.397658964E0,7.132819466E0
2.937677250E0,-3.453106533E0,4.191647877E0,-7.474367130E-1,5.482017720E0
2.947620250E0,-1.482314484E0,2.573798150E0,-6.035856185E0,6.727053815E0
2.957562250E0,2.026211666E0,-3.271341741E-1,-9.697342865E0,9.912164705E0
2.967505250E0,6.730715320E0,-4.211102732E0,-1.155483488E1,1.401963352E1
2.977447250E0,1.129568394E1,-8.610964111E0,-1.289969448E1,1.918706065E1
2.987389250E0,1.324801545E1,-1.375869373E1,-1.209058017E1,2.260516966E1
2.997332250E0,1.368698231E1,-1.645346141E1,-1.010852960E1,2.366922575E1
3.007274250E0,1.266362367E1,-1.352400637E1,-8.576499453E0,2.041623020E1
3.017217250E0,9.016325845E0,-8.037323604E0,-6.285365063E0,1.361611238E1
3.027159250E0,5.705072179E0,-2.397881743E0,-3.241177125E0,6.985908286E0
3.037101250E0,2.911909594E0,2.137111713E0,1.724518435E0,4.002552659E0
3.047044250E0,5.617651042E-1,5.885094500E0,5.668580875E0,8.190404535E0
3.056986250E0,-1.017478381E0,9.227406237E0,7.934469327E0,1.221212887E1
3.066928250E0,-3.010717891E0,1.061988381E1,1.010990837E1,1.496852035E1
3.076871250E0,-5.380452307E0,8.455200133E0,1.117843207E1,1.501322816E1
3.086813250E0,-6.915718299E0,4.732539883E0,1.038499180E1,1.334436765E1
3.096755250E0,-8.285241455E0,3.388970178E-1,8.403623013E0,1.180597124E1
3.106698250E0,-8.969415972E0,-4.616850967E0,4.769675549E0,1.115865317E1
3.116640250E0,-7.548624430E0,-1.017393187E1,-4.345546592E0,1.339307268E1
3.126583250E0,-3.400645314E0,-1.654231921E1,-1.941553105E1,2.573277209E1
3.136525250E0,3.766086352E0,-2.018183089E1,-2.266866340E1,3.058362314E1
3.146467250E0,4.599600219E0,-1.679308641E1,-1.011755653E1,2.013775120E1
3.156410250E0,-3.086470324E-1,-7.451376463E0,1.178937693E0,7.550375372E0
3.166352250E0,-3.857164629E0,8.573363006E-1,6.447486134E0,7.561932422E0
3.176295250E0,-5.464494338E0,7.114010831E0,9.152953055E0,1.281586509E1
3.186237250E0,-5.178846159E0,1.116367954E1,1.223882930E1,1.735618423E1
3.196179250E0,-5.516249213E0,1.115357906E1,1.225150607E1,1.746226595E1
3.206122167E0,-5.672150016E0,8.219473727E0,1.255170329E1,1.603989681E1
3.216064167E0,-4.854950173E0,3.563169842E0,1.120361368E1,1.271957861E1
3.226006167E0,-4.037174964E0,-2.854505432E-1,7.553643680E0,8.569585552E0
3.235949167E0,-2.444590764E0,-2.782605729E0,5.064067655E0,6.274049717E0
3.245891167E0,-8.945640609E-1,-4.554521402E0,3.393900551E0,5.749997479E0
3.255833167E0,1.278429237E0,-5.822766690E0,1.067076072E0,6.056207112E0
3.265776167E0,3.740468238E0,-6.154059988E0,-1.430075752E0,7.342252627E0
3.275718167E0,5.484664893E0,-5.098926415E0,-2.548558059E0,7.910483409E0
3.285661167E0,5.092599143E0,-2.404071606E0,-1.536907890E0,5.837483378E0
3.295603167E0,3.274048417E0,6.654020315E-1,-3.741340935E-1,3.361863951E0
3.305545167E0,5.015261384E-1,2.920301226E0,-2.563162247E-1,2.974119319E0
3.315488167E0,-2.562969691E0,4.496331666E0,-1.181811161E0,5.308718274E0
3.325430167E0,-4.804603600E0,4.769790739E0,-1.674432063E0,6.974155302E0
3.335373167E0,-5.984403026E0,4.224381174E0,-1.169849000E0,7.418020125E0
3.345315167E0,-5.785249785E0,3.611625134E0,3.330071175E-1,6.828165560E0
3.355257167E0,-5.257927412E0,2.710696086E0,1.725244952E0,6.161991893E0
3.365200167E0,-4.025140809E0,1.738491819E0,2.734903267E0,5.167572759E0
3.375142167E0,-2.614211766E0,7.251886421E-1,2.108222813E0,3.435783048E0
3.385084167E0,3.707663897E-1,2.298476154E-1,7.404842274E-1,8.594268631E-1
3.395027167E0,3.635943704E0,1.966202277E-1,-2.410293920E-1,3.649224753E0
3.404969167E0,5.551487458E0,4.595163059E-1,-8.269244935E-1,5.631515991E0
3.414912167E0,6.504082503E0,9.100343317E-1,-1.431641782E0,6.721670171E0
3.424854167E0,6.485894739E0,1.511666629E0,-2.425369504E0,7.087621872E0
3.434796167E0,6.256582144E0,1.897660630E0,-3.993409724E0,7.661152473E0
3.444739167E0,5.745075320E0,1.820338220E0,-4.374603161E0,7.446923827E0
3.454681167E0,4.580896145E0,8.615112126E-1,-2.672955233E0,5.373220705E0
3.464623167E0,3.291152692E0,-4.463056916E-1,-3.315681177E-1,3.337785528E0
3.474566167E0,2.545742332E0,-1.361615966E0,1.248778591E0,3.145512681E0
3.484508167E0,2.130352331E0,-1.522134899E0,1.696571668E0,3.119879987E0
3.494451167E0,1.835536011E0,-1.141191723E0,3.624750379E-1,2.191551767E0
3.504393167E0,1.578962234E0,-8.373563647E-1,-2.477598588E0,3.054960259E0
3.514335167E0,1.837938778E0,-1.314770998E0,-5.321148677E0,5.781112779E0
3.524278167E0,2.392455673E0,-2.436214335E0,-6.069206364E0,6.963781324E0
3.534220167E0,2.656840599E0,-3.402655587E0,-4.490872121E0,6.229349839E0
3.544162167E0,2.952238133E0,-3.795555734E0,-2.517155002E0,5.427524540E0
3.554105167E0,3.411415300E0,-4.235779152E0,-1.111263919E0,5.551079794E0
3.564047167E0,3.867061919E0,-4.942871246E0,2.853634197E-1,6.282322526E0
3.573990167E0,4.221409035E0,-5.722975768E0,1.294644297E0,7.228336582E0
3.583932167E0,4.382613262E0,-6.338459535E0,7.609002194E-1,7.743535202E0
3.593874167E0,5.014620675E0,-6.799914778E0,-1.749960548E0,8.628303624E0
3.603817167E0,6.614484951E0,-6.514329164E0,-3.511471100E0,9.925639774E0
3.613759167E0,8.389563968E0,-5.692172052E0,-3.801448558E0,1.082758594E1
3.623701167E0,1.007604597E1,-4.951746735E0,-4.648438795E0,1.215131604E1
3.633644167E0,1.088588183E1,-4.048224447E0,-5.204648752E0,1.272709366E1
3.643586167E0,1.103020866E1,-2.572408851E0,-4.908552184E0,1.234409474E1
3.653529167E0,1.025171738E1,-1.134356328E0,-3.764299443E0,1.097972786E1
3.663471167E0,7.939843503E0,-1.280692255E-1,-3.749814720E0,8.781721187E0
3.673413167E0,5.755743565E0,5.102666295E-1,-3.385858875E0,6.697237963E0
3.683356167E0,3.980452294E0,6.259660703E-1,-1.026174653E0,4.157988505E0
3.693298167E0,1.117838017E0,-5.814295828E-2,-1.068461131E0,1.547433884E0
3.703241167E0,-1.946535021E0,-1.872601218E0,-2.907905129E0,3.968821758E0
3.713183167E0,-4.042913714E0,-4.819896700E0,-1.688535547E0,6.513655486E0
3.723125167E0,-5.900246975E0,-7.650063096E0,3.593187693E0,1.030763686E1
3.733068167E0,-6.898573093E0,-9.862505658E0,8.595481853E0,1.478991673E1
3.743010167E0,-7.241926859E0,-1.118914299E1,9.452558538E0,1.633992927E1
3.752952167E0,-6.075726594E0,-1.043751851E1,6.339714932E0,1.363994984E1
3.762895167E0,-3.173528348E0,-7.914443198E0,1.508707938E0,8.659439529E0
3.772837167E0,-1.832263032E-1,-5.302550438E0,-2.326553314E0,5.793398256E0
3.782780167E0,1.201468769E0,-3.479114363E0,-2.020029405E0,4.198604858E0
3.792722167E0,-1.723811653E0,-2.911939707E0,1.594426804E0,3.740737402E0
3.802664167E0,-4.155692178E0,-2.390486185E0,5.681667529E0,7.434080144E0
3.812607167E0,-3.319301189E0,-1.163506452E0,7.521531941E0,8.303309604E0
3.822549167E0,-1.198119045E0,2.564910382E-1,4.981976255E0,5.130435099E0
3.832491167E0,-1.009277661E0,1.302752046E0,3.376524672E0,3.757222798E0
3.842434167E0,-1.185721194E0,2.124415069E0,2.694886677E0,3.630631947E0
3.852376167E0,-7.698499677E-1,2.825865769E0,1.965758766E0,3.527377757E0
3.862319167E0,-3.412850207E-1,3.568318900E0,1.772741008E0,3.998998115E0
3.872261167E0,-4.864547208E-1,3.943858080E0,1.036846698E0,4.106787775E0
3.882203167E0,-1.225653292E0,4.168184754E0,1.542718999E0,4.610419943E0
3.892146167E0,-2.633104704E0,4.468407118E0,3.166956078E0,6.076965802E0
3.902088167E0,-4.237380704E0,4.647044234E0,3.813898742E0,7.355014545E0
3.912031167E0,-5.907075353E0,4.526962890E0,4.021519629E0,8.459287935E0
3.921973167E0,-6.822435329E0,4.463284957E0,4.537066002E0,9.330139567E0
3.931915167E0,-7.537264459E0,4.285284603E0,5.272996856E0,1.014783304E1
3.941858167E0,-7.695390712E0,4.339813398E0,5.909921193E0,1.062921385E1
3.951800167E0,-7.444921721E0,4.670106238E0,5.894413792E0,1.058210119E1
3.961742167E0,-7.543805155E0,4.919702824E0,5.572712266E0,1.059092036E1
3.971685167E0,-7.651175821E0,5.225965946E0,5.132492942E0,1.059215253E1
3.981627167E0,-7.541453404E0,5.568736160E0,4.591072055E0,1.043850011E1
3.991570167E0,-6.796439778E0,5.771651500E0,4.304564920E0,9.901153157E0
4.001512167E0,-5.736174688E0,5.716162008E0,4.094758051E0,9.074428448E0
4.011454167E0,-4.552892368E0,5.344070347E0,3.835985137E0,8.000168671E0
4.021397167E0,-3.704464885E0,4.695598928E0,2.377873741E0,6.436302736E0
4.031339167E0,-2.634450148E0,3.664673413E0,-7.791827086E-1,4.580096560E0
4.041281167E0,-5.141576591E-1,1.796680970E0,-6.304567319E0,6.575712105E0
4.051224167E0,2.731131813E0,-1.198014380E0,-1.036001834E1,1.078073743E1
4.061166167E0,7.852953293E0,-4.815058714E0,-1.115076655E1,1.446351480E1
4.071109167E0,1.239585277E1,-8.912474032E0,-1.139333010E1,1.904986431E1
4.081051167E0,1.266483755E1,-1.283925766E1,-9.327105356E0,2.030368296E1
4.090993167E0,1.040817250E1,-1.370635062E1,-7.931052214E0,1.894982035E1
4.100936167E0,8.291746482E0,-1.017011364E1,-7.571407521E0,1.514960339E1
4.110878167E0,6.083634953E0,-4.922377340E0,-5.485772356E0,9.556888158E0
4.120821167E0,3.295357425E0,-8.397133774E-1,-2.822007192E0,4.419074983E0
4.130763167E0,7.378034252E-1,8.230049586E-1,1.139451884E0,1.587463906E0
4.140705167E0,-5.782814419E-1,1.073970963E0,4.324189053E0,4.492931562E0
4.150648167E0,3.175321689E-1,1.000396033E0,6.215568604E0,6.303563434E0
4.160590167E0,1.295866365E0,2.494667780E-1,6.395729504E0,6.530456278E0
4.170532167E0,5.396801707E-1,-6.466289610E-1,5.067968917E0,5.137479211E0
4.180475167E0,-5.839605501E-1,-2.202957793E0,3.501518847E0,4.177878313E0
4.190417167E0,-7.880824631E-1,-3.937433159E0,2.815967018E0,4.904500392E0
4.200360167E0,-1.039268907E0,-5.708298672E0,2.546074162E0,6.336185543E0
4.210301875E0,-1.840066141E0,-7.082369208E0,-2.608223632E-1,7.322146222E0
4.220243875E0,-3.697549675E0,-6.679235263E0,-2.926802453E0,8.176198989E0
4.230186875E0,-7.290168142E0,-4.558736660E0,-3.993460887E0,9.480314411E0
4.240128875E0,-9.961103747E0,-1.189977967E0,-3.894838532E0,1.076147772E1
4.250070875E0,-1.241978776E1,2.554953158E0,-1.766661219E0,1.280234375E1
4.260013875E0,-1.330315704E1,5.234918618E0,4.593667634E-1,1.430347433E1
4.269955875E0,-1.229559758E1,5.910445688E0,2.836124125E0,1.393408368E1
4.279898875E0,-9.728434265E0,5.258976987E0,5.229759035E0,1.223313745E1
4.289840875E0,-5.794224091E0,4.304664615E0,6.902281398E0,9.987224777E0
4.299782875E0,-2.801757115E0,1.950672657E0,8.044187651E0,8.738645301E0
4.309725875E0,9.891149998E-3,-1.076753068E0,8.560129588E0,8.627590252E0
4.319667875E0,2.189395176E0,-3.421307035E0,7.825476058E0,8.816851399E0
4.329610875E0,2.690279363E0,-4.869303333E0,6.649991584E0,8.670069554E0
4.339552875E0,2.982309194E0,-5.034064422E0,5.078217916E0,7.747533152E0
4.349494875E0,3.501952418E0,-3.702100856E0,2.355762495E0,5.614164089E0
4.359437875E0,3.994711899E0,-1.541506725E0,-1.090913855E0,4.418603759E0
4.369379875E0,3.546983288E0,3.557522017E-1,-3.588099446E0,5.057875810E0
4.379321875E0,2.469965048E0,1.511944372E0,-3.646611364E0,4.656659486E0
4.389264875E0,1.225468081E0,2.109196520E0,-2.029696607E0,3.173350012E0
4.399206875E0,5.908757597E-3,2.518861220E0,-2.547562241E-1,2.531718288E0
4.409149875E0,-1.528055936E0,2.671398119E0,5.537693292E-1,3.126976707E0
4.419091875E0,-2.726867731E0,2.671325614E0,1.389454560E0,4.062311181E0
4.429033875E0,-3.529644831E0,2.559953697E0,1.663827553E0,4.666913080E0
4.438976875E0,-4.253858743E0,2.191132969E0,1.981753386E0,5.179162516E0
4.448918875E0,-4.094929375E0,1.547095494E0,1.166647504E0,4.530233708E0
4.458861875E0,-2.948019367E0,9.557566345E-1,6.310875003E-1,3.162682463E0
4.468803875E0,-1.225187195E0,4.074924588E-1,7.345241605E-1,1.485482922E0
4.478745875E0,4.609421495E-1,-5.331549704E-2,1.146109232E0,1.236477488E0
4.488688875E0,1.419078308E0,-1.477199632E-1,4.555726513E-2,1.427473256E0
4.498630875E0,2.407102364E0,1.720163137E-1,-1.354826764E0,2.767541682E0
4.508572875E0,3.530917770E0,5.525759125E-1,-2.401491522E0,4.305796322E0
4.518515875E0,4.148288726E0,1.004983174E0,-3.226421092E0,5.350521806E0
4.528457875E0,4.747613712E0,1.173568926E0,-4.055289638E0,6.353146782E0
4.538400875E0,5.049140298E0,1.204180269E0,-4.987190802E0,7.198328970E0
4.548342875E0,4.555642021E0,1.225317369E0,-5.788771563E0,7.467606918E0
4.558284875E0,3.877708237E0,9.821679229E-1,-5.332282945E0,6.665922022E0
4.568227875E0,3.227766536E0,4.875905424E-1,-2.148981560E0,3.908240409E0
4.578169875E0,2.651362050E0,8.010860860E-2,1.744006913E0,3.174539057E0
4.588112875E0,2.454481621E0,7.272766829E-3,4.480527227E0,5.108782355E0
4.598054875E0,2.537332574E0,-2.651560271E-1,4.553688466E0,5.219620959E0
4.607996875E0,2.835063440E0,-4.749026692E-1,2.559617190E0,3.848994338E0
4.617939875E0,2.913063542E0,-1.044506843E0,-3.846903643E-1,3.118480467E0
4.627881875E0,2.766111611E0,-1.646778241E0,-3.961951996E0,5.104930523E0
4.637824875E0,2.718735131E0,-1.684507985E0,-6.756499786E0,7.475250981E0
4.647766875E0,2.620402213E0,-1.461307485E0,-7.423788714E0,8.007157186E0
4.657708875E0,2.352336026E0,-1.280351948E0,-5.844048800E0,6.428506224E0
4.667651875E0,2.339185785E0,-1.474071956E0,-2.902580069E0,4.008696712E0
4.677593875E0,2.328257339E0,-2.294962562E0,-5.631248742E-2,3.269679876E0
4.687535875E0,2.432333830E0,-3.372612593E0,1.783660098E0,4.524622294E0
4.697478875E0,2.893319249E0,-4.420060000E0,1.448486587E0,5.477804312E0
4.707420875E0,3.874317144E0,-5.124246029E0,-1.092766837E0,6.516315681E0
4.717363875E0,5.477193906E0,-4.971757076E0,-4.096740842E0,8.455844549E0
4.727305875E0,6.736767188E0,-4.131374193E0,-5.506852738E0,9.632118767E0
4.737247875E0,7.234048905E0,-3.411710000E0,-5.119180586E0,9.496169678E0
4.747190875E0,7.963188511E0,-3.265538380E0,-4.180846607E0,9.568468557E0
4.757132875E0,8.144741049E0,-3.306747801E0,-3.322871791E0,9.397492469E0
4.767075875E0,7.944073963E0,-2.903337868E0,-2.803230028E0,8.910430994E0
4.777017875E0,7.162694163E0,-1.709736966E0,-3.548305635E0,8.174219293E0
4.786959875E0,5.873175536E0,-6.119801152E-1,-5.698137966E0,8.205942165E0
4.796902875E0,4.702632544E0,-3.545032364E-1,-5.885371073E0,7.541751657E0
4.806844875E0,3.509801428E0,-6.943498421E-1,-4.779511151E0,5.970306073E0
4.816786875E0,1.726978944E0,-1.524246329E0,-4.509523569E0,5.063752163E0
4.826729875E0,-1.096407241E0,-2.412655318E0,-2.982364742E0,3.989675924E0
4.836671875E0,-4.636369265E0,-3.464016852E0,6.954450256E-1,5.829148866E0
4.846614875E0,-6.666992948E0,-5.264115520E0,4.900447358E0,9.806839016E0
4.856556875E0,-6.826755837E0,-7.903648653E0,6.632397312E0,1.237178045E1
4.866498875E0,-6.235204139E0,-1.046208383E1,6.342962476E0,1.373193874E1
4.876441875E0,-5.232355784E0,-1.193846134E1,4.412084398E0,1.376120979E1
4.886383875E0,-3.020885614E0,-1.105051838E1,1.263648791E0,1.152547242E1
4.896326875E0,-6.509225714E-1,-7.864599193E0,-1.090732591E0,7.966512301E0
4.906268875E0,6.097872631E-1,-4.712351786E0,-7.224327763E-1,4.806246870E0
4.916210875E0,3.805863498E-1,-2.927221406E0,1.282922530E0,3.218596176E0
4.926153875E0,-5.866321430E-1,-2.463297468E0,2.484981283E0,3.547830840E0
4.936095875E0,-6.382751901E-1,-2.230105246E0,3.488731863E0,4.189512459E0
4.946038875E0,2.261282015E-1,-1.513866937E0,3.924181030E0,4.212140052E0
4.955980875E0,2.469814190E-1,-7.397558105E-1,3.558407285E0,3.642869870E0
4.965922875E0,-4.629860437E-1,1.332182837E-1,3.719435511E0,3.750507127E0
4.975865875E0,-4.887997466E-1,1.123523192E0,3.141547879E0,3.372025005E0
4.985807875E0,-1.018598123E0,2.066518278E0,1.834133556E0,2.944840544E0
4.995749875E0,-1.066631830E0,2.895085693E0,1.765935433E0,3.554961685E0
5.005692875E0,-1.738242143E0,3.680641574E0,2.873520577E0,4.982542388E0
5.015634875E0,-2.732068537E0,4.551757423E0,3.955812420E0,6.620509499E0
5.025577875E0,-4.171889550E0,5.009128386E0,4.530544602E0,7.938631116E0
5.035519875E0,-5.669034619E0,5.038385514E0,5.155083075E0,9.170505090E0
5.045461875E0,-7.066355438E0,5.004017335E0,5.791709204E0,1.041717160E1
5.055404875E0,-7.982540456E0,5.229307045E0,6.457517617E0,1.152241893E1
5.065346875E0,-8.155181837E0,5.446402468E0,6.646180369E0,1.184660306E1
5.075289875E0,-8.191404753E0,5.208083991E0,7.000079588E0,1.196763824E1
5.085231875E0,-7.560415925E0,5.181250534E0,6.814245719E0,1.142099780E1
5.095173875E0,-6.851616443E0,5.183294136E0,6.416399996E0,1.072293686E1
5.105116875E0,-6.106078906E0,5.348268648E0,6.175183640E0,1.019907202E1
5.115058875E0,-5.225210486E0,5.593647053E0,5.964096816E0,9.703719019E0
5.125001875E0,-4.727992795E0,5.775180879E0,5.511922274E0,9.278357463E0
5.134943875E0,-4.686816995E0,5.903705018E0,5.130763335E0,9.118372601E0
5.144885875E0,-4.481526808E0,5.706870198E0,4.219783801E0,8.393987450E0
5.154828875E0,-4.162110959E0,5.259540074E0,2.503332185E0,7.159092222E0
5.164770875E0,-3.452003748E0,4.316425120E0,-1.339923965E0,5.687112793E0
5.174713875E0,-1.722275736E0,2.562653942E0,-6.759914560E0,7.431680415E0
5.184655875E0,1.791770771E0,-1.689500338E-1,-1.070895678E1,1.085913173E1
5.194597875E0,7.167466076E0,-4.064938713E0,-1.451495623E1,1.669072350E1
5.204541250E0,1.207547681E1,-8.948536735E0,-1.608401328E1,2.201338077E1
5.214483250E0,1.271184566E1,-1.489080823E1,-1.164957381E1,2.278244411E1
5.224426250E0,1.161125583E1,-1.837751345E1,-9.224103144E0,2.361436727E1
5.234368250E0,1.005888089E1,-1.531348357E1,-7.747253176E0,1.989230493E1
5.244310250E0,7.330457212E0,-7.706317989E0,-5.773529041E0,1.210192454E1
5.254253250E0,3.618099171E0,-4.481013715E-2,-5.209167480E0,6.342560634E0
5.264195250E0,-5.261652088E-1,5.025053862E0,-2.160369598E0,5.495017101E0
5.274138250E0,-2.997682401E0,7.263718847E0,3.437019381E0,8.576760081E0
5.284080250E0,-2.369426561E0,7.162128738E0,8.815145373E0,1.160245915E1
5.294022250E0,-9.276283112E-1,5.812895420E0,1.088496616E1,1.237468124E1
5.303965250E0,-1.150063119E0,3.770096957E0,8.411363558E0,9.289096465E0
5.313907250E0,-2.055858219E0,8.684530270E-1,5.585034104E0,6.014430116E0
5.323850250E0,-2.490263365E0,-2.521831021E0,4.338750958E0,5.602303384E0
5.333792250E0,-1.441794449E0,-6.612251315E0,2.344324464E0,7.162157208E0
5.343734250E0,1.006293827E0,-1.194053360E1,-5.573646652E0,1.321569169E1
5.353677250E0,3.513392788E0,-1.569982548E1,-1.193106812E1,2.002944921E1
5.363619250E0,-5.737089193E-1,-1.360989495E1,-7.171322315E0,1.539435761E1
5.373562250E0,-6.360674862E0,-5.723119025E0,-1.127440242E0,8.630376444E0
5.383504250E0,-9.573888263E0,2.159099582E0,1.086739381E0,9.874312632E0
5.393446250E0,-1.110305093E1,7.787707722E0,1.877439351E0,1.369127131E1
5.403389250E0,-1.099866878E1,1.048093291E1,3.881032087E0,1.568065941E1
5.413331250E0,-9.892001352E0,9.160114725E0,6.252838172E0,1.486127107E1
5.423274250E0,-7.803606302E0,6.321583301E0,1.050443170E1,1.453278267E1
5.433216250E0,-5.294258502E0,2.820703847E0,1.295325497E1,1.427488556E1
5.443158250E0,-3.259923298E0,-9.494048041E-1,1.275443210E1,1.319863658E1
5.453101250E0,-1.830603153E0,-4.707820194E0,1.007939409E1,1.127425670E1
5.463043250E0,-8.217238337E-1,-7.107358453E0,6.654992123E0,9.771319992E0
5.472985250E0,7.235897210E-1,-7.898577363E0,2.666150243E0,8.367763355E0
5.482928250E0,3.271732335E0,-6.831733571E0,-9.553110766E-1,7.634751817E0
5.492870250E0,5.727931284E0,-3.734602019E0,-4.266395173E0,8.059688381E0
5.502813250E0,6.208125098E0,-4.659353793E-1,-5.493426946E0,8.302749703E0
5.512755250E0,4.619773113E0,1.458563971E0,-3.744204317E0,6.122808052E0
5.522697250E0,2.461954948E0,2.294883624E0,-1.137517918E0,3.552697570E0
5.532640250E0,1.888055702E-1,2.714314343E0,5.482255840E-1,2.775554213E0
5.542582250E0,-1.549372253E0,3.400308514E0,2.517966596E0,4.505863752E0
5.552525250E0,-3.641861963E0,3.980282725E0,2.215730451E0,5.832261188E0
5.562467250E0,-5.475577151E0,3.797570685E0,-1.281757180E-1,6.664826873E0
5.572410250E0,-6.041499333E0,3.056101055E0,-6.008768374E-1,6.797096499E0
5.582352250E0,-4.808796346E0,2.261610628E0,5.224697685E-1,5.339698455E0
5.592294250E0,-2.820177306E0,1.312072508E0,1.436529762E0,3.426157039E0
5.602237250E0,-9.214795254E-1,3.662023455E-1,1.131417518E0,1.504438192E0
5.612179250E0,7.672190130E-1,-3.305390078E-1,6.051488131E-1,1.031545508E0
5.622122250E0,2.412337961E0,-4.414770609E-1,4.939575756E-1,2.501653557E0
5.632064250E0,4.069418850E0,-4.386171877E-2,4.825115047E-1,4.098159462E0
5.642006250E0,5.347102128E0,7.486102492E-1,2.514302731E-4,5.399251665E0
5.651949250E0,5.637259095E0,1.360412609E0,-1.404934771E0,5.966846259E0
5.661891250E0,5.550211596E0,1.831032777E0,-4.019028130E0,7.092962491E0
5.671834250E0,4.911023802E0,1.712217940E0,-6.044011297E0,7.973701625E0
5.681776250E0,3.937827846E0,9.677896196E-1,-5.237148746E0,6.623506012E0
5.691718250E0,3.539222571E0,-1.256490630E-1,-2.237975159E0,4.189321772E0
5.701661250E0,3.949591860E0,-1.415701541E0,-4.090998584E-1,4.215548530E0
5.711603250E0,4.678736143E0,-1.931196166E0,1.481723915E-1,5.063797546E0
5.721546250E0,5.569831928E0,-1.765826967E0,1.166575071E-1,5.844209233E0
5.731488250E0,6.354613638E0,-1.189882658E0,-7.404972374E-1,6.507324441E0
5.741430250E0,6.570753626E0,-6.376412058E-1,-2.503651443E0,7.060429170E0
5.751373250E0,6.009703928E0,-5.281421524E-1,-4.170233911E0,7.333916165E0
5.761315250E0,4.622612813E0,-1.259417746E0,-4.885591045E0,6.842783216E0
5.771258250E0,3.126003934E0,-2.142476533E0,-4.400759803E0,5.807649536E0
5.781200250E0,2.655527607E0,-2.553824646E0,-2.401298564E0,4.397736007E0
5.791142250E0,2.771941577E0,-3.333250891E0,-1.089666644E-1,4.336599514E0
5.801085250E0,2.698325717E0,-4.417940385E0,4.345361236E-1,5.194995723E0
5.811027250E0,2.644448302E0,-4.797366208E0,-7.109407318E-1,5.523881433E0
5.820970250E0,2.792605053E0,-4.373226727E0,-2.506754268E0,5.762601144E0
5.830912250E0,3.070190214E0,-3.716459863E0,-4.838301688E0,6.829883241E0
5.840854250E0,3.986943873E0,-3.143290642E0,-7.251047931E0,8.851762175E0
5.850797250E0,5.801319103E0,-2.816136587E0,-7.258096164E0,9.709062187E0
5.860739250E0,7.555614191E0,-2.967329212E0,-5.083096833E0,9.577589565E0
5.870682250E0,8.513513246E0,-2.957009461E0,-3.270196856E0,9.587387559E0
5.880624250E0,8.374993876E0,-1.911236696E0,-3.351001868E0,9.220767954E0
5.890566250E0,7.673259585E0,-5.113781852E-1,-3.840403293E0,8.595877952E0
5.900509250E0,7.432404587E0,6.441012096E-1,-2.986901012E0,8.035986683E0
5.910451250E0,6.725041181E0,9.913147223E-1,-3.136657560E0,7.486488123E0
5.920394250E0,4.138497856E0,2.435014486E-2,-3.604166425E0,5.487966204E0
5.930336250E0,4.261891501E-1,-1.726281078E0,-2.007595301E0,2.681813276E0
5.940278250E0,-3.404218547E0,-4.082958078E0,2.799303038E0,6.007940419E0
5.950221250E0,-5.636833418E0,-6.919811935E0,8.194196799E0,1.211621019E1
5.960163250E0,-6.462080784E0,-1.002754215E1,9.321889640E0,1.513960753E1
5.970106250E0,-6.339639503E0,-1.254238984E1,8.206247910E0,1.627406147E1
5.980048250E0,-4.592098534E0,-1.307160847E1,4.731950483E0,1.464054890E1
5.989991250E0,-2.223699621E0,-1.067349693E1,3.369471176E-1,1.090788293E1
5.999933250E0,-5.008039342E-1,-6.838184220E0,-1.309833463E0,6.980489360E0
6.009875250E0,-2.873443101E-1,-3.972639245E0,-1.174857652E-1,3.984749958E0
6.019818250E0,-6.857620364E-1,-3.216449250E0,6.548576014E-1,3.353304911E0
6.029760250E0,-2.323713906E0,-3.243204939E0,1.613369736E0,4.303601573E0
6.039703250E0,-4.014959053E0,-3.378848063E0,3.342108253E0,6.221430543E0
6.049645250E0,-3.188584344E0,-2.599190269E0,5.483121228E0,6.854741321E0
6.059587250E0,-6.067434950E-1,-9.992037857E-1,4.583825308E0,4.730539116E0
6.069530250E0,6.170186609E-1,-6.455910802E-3,3.105154517E0,3.165870856E0
6.079472250E0,6.753958002E-1,8.339930463E-1,2.563659078E0,2.779217832E0
6.089415250E0,6.078060803E-1,1.501113575E0,1.419835084E0,2.153764579E0
6.099357250E0,2.774000967E-1,2.144340625E0,1.128945315E0,2.439193526E0
6.109299250E0,-7.495911196E-1,3.008599445E0,1.705680314E0,3.538771369E0
6.119242250E0,-2.130199134E0,3.654564162E0,2.560273540E0,4.944551361E0
6.129184250E0,-3.676523088E0,4.082413702E0,3.325833406E0,6.422156296E0
6.139127250E0,-4.970268960E0,4.535736052E0,3.831372561E0,7.743118931E0
6.149069250E0,-5.998091358E0,4.876291925E0,4.439388556E0,8.914229840E0
6.159011250E0,-6.711944588E0,5.305689808E0,5.465204190E0,1.015229045E1
6.168954250E0,-6.925573781E0,5.898370019E0,6.222806872E0,1.102169073E1
6.178896250E0,-6.937219681E0,6.263050919E0,6.360935647E0,1.130541136E1
6.188839250E0,-6.927601011E0,6.179484851E0,5.861461809E0,1.097881703E1
6.198781250E0,-6.935415230E0,5.678343387E0,5.526370744E0,1.053016342E1
6.208723500E0,-6.963496483E0,4.967592105E0,5.715384328E0,1.028751052E1
6.218666500E0,-6.674747525E0,4.510965493E0,5.630442996E0,9.828680101E0
6.228608500E0,-6.165401248E0,4.692484701E0,5.105988683E0,9.279154360E0
6.238551500E0,-5.637049180E0,5.042367468E0,4.499220191E0,8.800271329E0
6.248493500E0,-4.928605210E0,5.077514496E0,3.667283318E0,7.970023194E0
6.258436500E0,-4.276473726E0,4.683583485E0,2.186802228E0,6.708672430E0
6.268378500E0,-3.562762876E0,3.775243092E0,-5.703103714E-1,5.222163693E0
6.278320500E0,-2.235755410E0,2.673562759E0,-4.093635678E0,5.376280605E0
6.288263500E0,2.025449190E-1,1.318398026E0,-7.581420293E0,7.697865383E0
6.298205500E0,3.312941757E0,-8.615188140E-1,-9.328672995E0,9.936897785E0
6.308148500E0,7.379554528E0,-3.411722279E0,-9.652063197E0,1.261982559E1
6.318090500E0,1.072945712E1,-6.513707605E0,-9.832091950E0,1.594426759E1
6.328032500E0,1.135792404E1,-1.030312961E1,-9.741923207E0,1.816760816E1
6.337975500E0,9.725499548E0,-1.260589645E1,-8.528903117E0,1.806200861E1
6.347917500E0,8.212711422E0,-1.112330335E1,-7.392737660E0,1.567893735E1
6.357860500E0,7.404641422E0,-6.755322157E0,-4.840087428E0,1.113056775E1
6.367802500E0,5.985361385E0,-1.729861329E0,-1.927039673E0,6.521537627E0
6.377744500E0,3.292882884E0,2.262664297E0,8.090008771E-1,4.076421203E0
6.387687500E0,3.299396682E-1,4.993425103E0,3.544632415E0,6.132501399E0
6.397629500E0,-1.926370752E0,5.676012102E0,5.300083498E0,8.001181334E0
6.407572500E0,-4.504713650E0,3.271753970E0,5.146095319E0,7.581498278E0
6.417514500E0,-5.656384753E0,-1.423823324E0,5.184736644E0,7.804066594E0
6.427456500E0,-4.464445922E0,-6.183869678E0,5.512400576E0,9.410530362E0
6.437399500E0,-1.141504257E0,-1.077418715E1,3.431030078E0,1.136477488E1
6.447341500E0,3.588879465E0,-1.565417276E1,-3.683842925E0,1.647737477E1
6.457284500E0,6.594703236E0,-1.555276567E1,-4.155588098E0,1.739676818E1
6.467226500E0,1.612419710E0,-8.505533550E0,-2.254630076E0,8.945800975E0
6.477169500E0,-7.036719410E0,-6.008388305E-1,-1.539647603E0,7.228204625E0
6.487111500E0,-1.393473585E1,5.484785346E0,-3.441248672E-1,1.497925750E1
6.497053500E0,-1.645408823E1,9.544575001E0,-7.073256907E-1,1.903513176E1
6.506996500E0,-1.600585004E1,1.064697045E1,2.993496087E0,1.945523667E1
6.516938500E0,-1.343386336E1,9.638629804E0,7.853117015E0,1.830418848E1
6.526881500E0,-9.770609647E0,6.990612946E0,9.510394517E0,1.532256787E1
6.536823500E0,-5.532516752E0,3.378971440E0,1.041290290E1,1.226599920E1
6.546765500E0,-2.538742923E0,-6.174811757E-1,1.085652647E1,1.116649747E1
6.556708500E0,-6.522506203E-1,-4.558114516E0,9.598755301E0,1.064602941E1
6.566650500E0,3.832975575E-1,-8.336180643E0,7.653134054E0,1.132295392E1
6.576593500E0,2.148892683E0,-1.071680258E1,4.908767946E0,1.198180287E1
6.586535500E0,5.383711545E0,-9.812092134E0,1.239116213E0,1.126041345E1
6.596477500E0,7.663189511E0,-5.827839734E0,-2.394483926E0,9.920773292E0
6.606420500E0,6.742564117E0,-1.090856552E0,-4.017920083E0,7.924381407E0
6.616362500E0,4.589167909E0,1.788435227E0,-3.114863818E0,5.827635821E0
6.626305500E0,2.172380802E0,2.906249197E0,-6.478978068E-1,3.685823424E0
6.636247500E0,2.106850471E-1,3.589846010E0,7.975788530E-1,3.683410728E0
6.646190500E0,-1.933024883E0,3.700144377E0,1.272371668E0,4.364239140E0
6.656132500E0,-3.804982907E0,3.458591221E0,1.569769242E0,5.376236940E0
6.666074500E0,-5.082101052E0,3.100243440E0,1.882629193E0,6.243681060E0
6.676017500E0,-6.414570403E0,2.534586137E0,4.837075527E-1,6.914102496E0
6.685959500E0,-6.360147443E0,1.774562708E0,-6.365803747E-1,6.633685467E0
6.695902500E0,-4.724312850E0,9.731673038E-1,5.143748832E-1,4.850852299E0
6.705844500E0,-2.820555620E0,2.198740196E-1,1.144366615E0,3.051795134E0
6.715786500E0,-1.126568860E0,-1.620789707E-1,7.025586019E-1,1.337540870E0
6.725729500E0,7.489034870E-1,-2.383266628E-2,5.938125238E-1,9.560532110E-1
6.735671500E0,2.850387822E0,6.564867818E-1,6.815114030E-1,3.003355361E0
6.745614500E0,4.525758364E0,1.534778919E0,4.501237772E-1,4.800067344E0
6.755556500E0,5.551445943E0,2.276296495E0,-7.185444510E-1,6.042878778E0
6.765498500E0,5.941815416E0,2.833475921E0,-3.115281017E0,7.282769531E0
6.775441500E0,5.574458830E0,3.024285185E0,-5.529218922E0,8.413866770E0
6.785383500E0,4.270875894E0,2.191915911E0,-6.029937049E0,7.707465023E0
6.795326500E0,3.668142274E0,8.695441175E-1,-3.257757490E0,4.982404899E0
6.805268500E0,3.702326266E0,-7.184719455E-1,-7.781445354E-2,3.772197875E0
6.815210500E0,4.480415253E0,-1.760191421E0,7.601881747E-1,4.873425975E0
6.825153500E0,5.404520032E0,-1.931374506E0,6.910350555E-1,5.780707025E0
6.835095500E0,6.084759373E0,-1.285044338E0,4.370030639E-1,6.234308884E0
6.845038500E0,6.595947524E0,-3.980965680E-1,-1.092483540E0,6.697650700E0
6.854980500E0,6.578645613E0,-2.835080981E-2,-3.953168894E0,7.675084766E0
6.864923500E0,5.517542617E0,-5.718693852E-1,-6.558756309E0,8.589970631E0
6.874865500E0,3.690905484E0,-2.028678022E0,-7.162559677E0,8.309066069E0
6.884807500E0,2.320471040E0,-3.269346671E0,-5.541937201E0,6.840049813E0
6.894750500E0,2.293141593E0,-3.256000401E0,-2.403330471E0,4.651455077E0
6.904692500E0,2.744470189E0,-3.020269318E0,6.264543128E-1,4.128751430E0
6.914635500E0,2.506827650E0,-3.410576225E0,2.183741211E0,4.762871060E0
6.924577500E0,2.247508752E0,-4.144479557E0,1.532046515E0,4.957335264E0
6.934519500E0,2.823378949E0,-4.519312393E0,-3.652536348E-1,5.341260470E0
6.944462500E0,4.032452460E0,-4.519857938E0,-2.283500265E0,6.473342420E0
6.954404500E0,5.639857013E0,-4.623284073E0,-3.517055776E0,8.096445151E0
6.964347500E0,7.292777170E0,-5.149940448E0,-3.456221344E0,9.573502570E0
6.974289500E0,8.636828100E0,-5.643835459E0,-3.412159943E0,1.086694593E1
6.984232500E0,9.334661129E0,-5.004921899E0,-3.659913779E0,1.120625319E1
6.994174500E0,9.594920697E0,-3.717097794E0,-3.614204925E0,1.090604403E1
7.004116500E0,8.708434857E0,-2.405077912E0,-4.076692201E0,9.911642484E0
7.014059500E0,6.392260351E0,-1.620810172E0,-6.544632944E0,9.290868548E0
7.024001500E0,4.289878176E0,-1.642685190E0,-7.625513561E0,8.902242778E0
7.033944500E0,2.457901950E0,-1.714527590E0,-6.349556381E0,7.021235866E0
7.043886500E0,-1.396928233E-1,-1.980543158E0,-5.849860348E0,6.177615347E0
7.053828500E0,-3.279003055E0,-2.606636113E0,-3.971355781E0,5.772181529E0
7.063771500E0,-6.156815781E0,-3.184439253E0,9.697841048E-1,6.999108166E0
7.073713500E0,-6.776418326E0,-4.560910655E0,6.221422251E0,1.026780630E1
7.083656500E0,-5.947342789E0,-6.590885004E0,8.909932247E0,1.257766052E1
7.093598500E0,-5.504609746E0,-8.837504541E0,8.306113676E0,1.331892411E1
7.103540500E0,-4.182256371E0,-1.051360014E1,5.362576200E0,1.252135295E1
7.113483500E0,-1.365704924E0,-1.043488492E1,1.625331824E0,1.064864671E1
7.123425500E0,1.147860180E0,-8.402911992E0,-1.583944062E0,8.627594783E0
7.133368500E0,2.061704996E0,-6.146330554E0,-2.410075819E0,6.916391561E0
7.143310500E0,-1.772368540E-1,-5.033922334E0,-6.108935563E-1,5.073950917E0
7.153253500E0,-3.011031302E0,-4.403902389E0,2.240781823E0,5.786343313E0
7.163195500E0,-4.164192860E0,-3.605873228E0,6.007623489E0,8.150727814E0
7.173137500E0,-9.901303688E-1,-2.005269279E0,7.130219897E0,7.472716963E0
7.183080500E0,1.604032756E0,-6.228799099E-1,5.160107002E0,5.439448937E0
7.193022500E0,1.977582713E0,8.356676888E-1,2.900703113E0,3.608774366E0
7.202965500E0,1.955115079E0,1.808898727E0,7.731828806E-1,2.773517864E0
7.212907500E0,1.411934765E0,2.113512350E0,2.392335659E-1,2.552983928E0
7.222849500E0,1.860557708E-1,2.446689037E0,5.050976908E-1,2.505200126E0
7.232792500E0,-1.458221909E0,3.390836610E0,1.640267074E0,4.039141013E0
7.242734500E0,-3.622424941E0,4.448014369E0,3.621778239E0,6.784104355E0
7.252677500E0,-6.405102591E0,5.304065452E0,5.205218271E0,9.810848422E0
7.262619500E0,-8.618972458E0,5.780280821E0,5.367596619E0,1.168372484E1
7.272561500E0,-1.002684867E1,5.963077061E0,4.591554450E0,1.253707919E1
7.282504500E0,-1.102692252E1,5.389465790E0,5.197864813E0,1.332880941E1
7.292446500E0,-1.052629678E1,4.090643073E0,6.381285127E0,1.297139486E1
7.302389500E0,-8.238373682E0,3.398550256E0,6.984033659E0,1.132244103E1
7.312331500E0,-5.881136520E0,3.752781013E0,7.077554026E0,9.937952660E0
7.322274500E0,-4.495634386E0,4.744036678E0,6.797500463E0,9.429879377E0
7.332216500E0,-4.561227866E0,5.240293964E0,6.171906860E0,9.292895930E0
7.342158500E0,-5.196238702E0,5.619275399E0,5.745822594E0,9.570351610E0
7.352101500E0,-5.278124864E0,6.003718134E0,5.382035733E0,9.636884463E0
7.362043500E0,-5.084417135E0,6.156600019E0,4.950804749E0,9.394971477E0
7.371986500E0,-4.770697643E0,6.019457669E0,4.389800367E0,8.846681518E0
7.381928500E0,-4.589410276E0,5.747080330E0,3.554509824E0,8.168608149E0
7.391870500E0,-4.150422667E0,5.087581063E0,1.732865920E0,6.790604810E0
7.401813500E0,-3.517837256E0,3.929859261E0,-2.356254538E0,5.776755856E0
7.411755500E0,-1.693878733E0,1.966730865E0,-8.868426957E0,9.240468178E0
7.421698500E0,2.512712873E0,-1.077146586E0,-1.270851392E1,1.299924216E1
7.431640500E0,8.860561282E0,-5.551043655E0,-1.749274202E1,2.037939290E1
7.441582500E0,1.244150900E1,-1.215588421E1,-1.591090997E1,2.357358104E1
7.451525500E0,1.259119187E1,-1.806516922E1,-9.863202646E0,2.412822452E1
7.461467500E0,1.315491959E1,-1.843629551E1,-8.655928030E0,2.424611292E1
7.471410500E0,1.148541907E1,-1.244646042E1,-5.477441243E0,1.779976379E1
7.481352500E0,7.652911860E0,-4.335001724E0,-3.159599111E0,9.345713799E0
7.491295500E0,2.077995193E0,2.310609711E0,-2.267144433E0,3.846677156E0
7.501237500E0,-2.412315595E0,6.967367340E0,3.419194436E-1,7.381082785E0
7.511179500E0,-3.921703272E0,8.925345508E0,4.977942846E0,1.094629910E1
7.521122500E0,-1.828568761E0,9.006927030E0,9.924943396E0,1.352674756E1
7.531064500E0,-6.987823239E-1,7.218849068E0,1.255632726E1,1.450039424E1
7.541007500E0,-2.038935208E0,4.481136507E0,1.024602453E1,1.136744738E1
7.550949500E0,-3.748803737E0,9.631767511E-1,6.599930062E0,7.651164339E0
7.560891500E0,-5.657687513E0,-2.997818348E0,4.728767259E0,7.959747649E0
7.570834500E0,-6.029909567E0,-7.602698895E0,-6.921919271E-2,9.703897731E0
7.580776500E0,-2.424060020E0,-1.397306552E1,-1.347097914E1,1.955990557E1
7.590719500E0,3.976306034E0,-2.093100890E1,-2.055815768E1,2.960668827E1
7.600661500E0,3.199592604E0,-1.973894640E1,-9.977934372E0,2.234776437E1
7.610604500E0,-2.615165739E0,-9.541221623E0,-1.646423608E0,1.002919302E1
7.620546500E0,-7.298194031E0,8.051715356E-1,5.891985444E0,9.414214241E0
7.630488500E0,-9.409096184E0,8.448538985E0,9.470717651E0,1.579884157E1
7.640431500E0,-9.167371704E0,1.304616723E1,9.658380529E0,1.864208942E1
7.650373500E0,-8.979345714E0,1.269946944E1,8.361084520E0,1.765822494E1
7.660316500E0,-7.681413528E0,9.614152774E0,9.606257279E0,1.561141333E1
7.670258500E0,-4.716886009E0,5.333243058E0,1.161741412E1,1.362559378E1
7.680200500E0,-3.696499223E0,8.547459841E-2,1.191388666E1,1.247445822E1
7.690143500E0,-2.456516160E0,-4.198855739E0,9.991807476E0,1.111310388E1
7.700085500E0,-1.753096702E0,-7.523853870E0,7.289785734E0,1.062180310E1
7.710028500E0,-6.330862248E-1,-9.829836094E0,3.564943303E0,1.047546164E1
7.719970500E0,1.790948506E0,-9.647539791E0,-7.693181634E-1,9.842477889E0
7.729912500E0,4.987170922E0,-6.974363533E0,-4.405247834E0,9.639493191E0
7.739855500E0,6.376607940E0,-3.213767132E0,-5.004359397E0,8.719692711E0
7.749797500E0,4.586485206E0,3.560235125E-1,-2.930275991E0,5.454275082E0
7.759740500E0,2.140613903E0,2.506135924E0,-1.481010847E0,3.613355543E0
7.769682500E0,4.257209343E-1,3.839076560E0,-1.704340754E-1,3.866367148E0
7.779625500E0,-1.665765320E0,4.604675310E0,1.797326503E0,5.216147176E0
7.789567500E0,-4.370565366E0,4.689986186E0,1.868530971E0,6.677516008E0
7.799509500E0,-6.034157569E0,4.501509376E0,1.612434036E-1,7.529982979E0
7.809452500E0,-6.573657938E0,3.597653212E0,-6.800674331E-1,7.524531815E0
7.819394500E0,-5.596906875E0,2.514502121E0,-1.377872980E-1,6.137350636E0
7.829337500E0,-3.575747788E0,1.573230209E0,1.365645867E0,4.138358874E0
7.839279500E0,-1.611489856E0,6.500051433E-1,1.938733081E0,2.603476945E0
7.849221500E0,8.577061370E-2,-1.161958694E-1,1.334738070E0,1.342528880E0
7.859164500E0,1.757005273E0,-3.916131753E-1,9.083424398E-1,2.016312078E0
7.869106500E0,3.317329800E0,-6.615247428E-2,3.156384020E-1,3.332968759E0
7.879049500E0,4.602101950E0,7.137965119E-1,-8.712474114E-1,4.737923582E0
7.888991500E0,5.483404818E0,1.675755288E0,-1.965952893E0,6.061423510E0
7.898933500E0,5.648695664E0,2.317231098E0,-3.419800208E0,6.998025159E0
7.908876500E0,5.707680037E0,2.250401516E0,-4.930973332E0,7.871239825E0
7.918818500E0,5.248077777E0,1.208838746E0,-5.345088932E0,7.587726086E0
7.928761500E0,4.406628069E0,-3.549663359E-1,-3.272245721E0,5.500178551E0
7.938703500E0,3.969734933E0,-1.425341261E0,-4.689930345E-1,4.243859990E0
7.948646500E0,4.373145450E0,-1.403010160E0,6.102598643E-1,4.633061163E0
7.958588500E0,5.309485821E0,-8.394724721E-1,1.747563189E-1,5.378279788E0
7.968530500E0,6.117245919E0,5.770266294E-2,-5.820634210E-1,6.145146463E0
7.978473500E0,6.634701115E0,4.556688380E-1,-1.655541463E0,6.853299243E0
7.988415500E0,6.600112495E0,-1.468001962E-1,-3.087231924E0,7.287937719E0
7.998358500E0,5.850310584E0,-1.553001766E0,-4.878631689E0,7.774252090E0
8.008300500E0,4.385244217E0,-2.999484220E0,-5.540312260E0,7.676088350E0
8.018242500E0,3.177028491E0,-4.137188079E0,-3.873048006E0,6.496948214E0
8.028185500E0,2.921200820E0,-4.772574014E0,-9.319485265E-1,5.672689398E0
8.038127500E0,2.765090979E0,-5.153093852E0,7.963396087E-1,5.902055671E0
8.048070500E0,2.039198040E0,-5.225736151E0,2.145255715E-1,5.613614538E0
8.058012500E0,1.763712468E0,-4.648020135E0,-2.151722443E0,5.417073224E0
8.067955500E0,2.628908450E0,-3.744230044E0,-5.151289401E0,6.889571885E0
8.077897500E0,4.146728396E0,-3.569853210E0,-7.331702085E0,9.148391323E0
8.087839500E0,6.122778554E0,-4.272167544E0,-7.470840089E0,1.056187883E1
8.097782500E0,7.975993329E0,-4.852430023E0,-5.881930572E0,1.103447570E1
8.107724500E0,8.997110724E0,-4.476945223E0,-4.546589654E0,1.103007332E1
8.117667500E0,8.419517500E0,-2.703596397E0,-5.146537369E0,1.023154706E1
8.127609500E0,7.417490678E0,-5.985999316E-1,-5.243377200E0,9.103323256E0
8.137551500E0,6.170695317E0,1.341778702E0,-4.101189696E0,7.529781385E0
8.147494500E0,4.390844095E0,2.197838556E0,-4.091090970E0,6.391168243E0
8.157436500E0,1.996842272E0,1.197437845E0,-4.224148455E0,4.823345999E0
8.167379500E0,-1.110120423E0,-5.081265485E-1,-1.938363099E0,2.290810216E0
8.177321500E0,-4.349069248E0,-2.937046482E0,3.003929858E0,6.046837186E0
8.187263500E0,-5.830449931E0,-6.248139349E0,7.864460614E0,1.161391977E1
8.197206500E0,-6.129385908E0,-9.754004724E0,8.649346404E0,1.440559520E1
8.207148875E0,-5.641405941E0,-1.277862203E1,7.167534488E0,1.570006983E1
8.217091875E0,-3.907289593E0,-1.416790878E1,5.267878203E0,1.561240186E1
8.227033875E0,-1.837100287E0,-1.252180296E1,2.959899155E0,1.299736473E1
8.236976875E0,7.698634163E-2,-8.608965533E0,6.826883014E-1,8.636334741E0
8.246918875E0,7.585768282E-1,-4.804257152E0,4.518272173E-1,4.884718356E0
8.256860875E0,-7.438460840E-1,-2.899306213E0,1.130899601E0,3.199721460E0
8.266803875E0,-3.112166790E0,-2.714162316E0,1.950011629E0,4.566706095E0
8.276745875E0,-4.005581288E0,-2.600183126E0,4.011220051E0,6.236627297E0
8.286688875E0,-2.118746485E0,-2.390724167E0,4.593505081E0,5.595081558E0
8.296630875E0,8.098814678E-1,-1.362452118E0,4.597565388E0,4.863105105E0
8.306572875E0,1.573429306E0,-3.330650049E-1,3.582936063E0,3.927345529E0
8.316515875E0,1.317758340E0,4.946469623E-1,2.034889227E0,2.474254802E0
8.326457875E0,5.202411023E-1,1.341829573E0,1.080982651E0,1.799911359E0
8.336400875E0,-8.455111840E-1,2.298325295E0,1.277464008E0,2.762083021E0
8.346342875E0,-2.695093961E0,3.103641842E0,2.267336222E0,4.694351679E0
8.356284875E0,-4.455631244E0,3.931801706E0,3.456640005E0,6.874596320E0
8.366227875E0,-6.044677294E0,4.533225258E0,3.905261779E0,8.505252753E0
8.376169875E0,-7.165979714E0,4.938378246E0,4.246272273E0,9.683474230E0
8.386112875E0,-8.102380310E0,4.908008392E0,5.067491199E0,1.074321089E1
8.396054875E0,-7.978374315E0,5.090137466E0,5.756241163E0,1.107692505E1
8.405997875E0,-7.106448627E0,5.374988669E0,6.121079353E0,1.081016779E1
8.415939875E0,-6.227896289E0,5.735371866E0,6.139211569E0,1.045806394E1
8.425881875E0,-5.799015300E0,6.078554308E0,5.945771642E0,1.029221071E1
8.435824875E0,-6.082153269E0,6.226270763E0,5.641103640E0,1.037213027E1
8.445766875E0,-6.704456059E0,6.317873828E0,5.403755216E0,1.068016063E1
8.455709875E0,-6.957058114E0,6.383417607E0,5.097150031E0,1.072984699E1
8.465651875E0,-6.864000846E0,6.481655508E0,4.722696095E0,1.055605154E1
8.475593875E0,-6.521170406E0,6.311064160E0,4.105683574E0,9.960513637E0
8.485536875E0,-6.109490172E0,5.872964451E0,3.313285865E0,9.099200230E0
8.495478875E0,-5.559237943E0,5.152774594E0,2.020390763E0,7.844628185E0
8.505421875E0,-4.730575803E0,4.063251792E0,-6.590045929E-1,6.270777432E0
8.515363875E0,-3.274322944E0,2.174698200E0,-6.233548207E0,7.369370818E0
8.525305875E0,-4.292978954E-1,-5.900799537E-1,-1.166275694E1,1.168556333E1
8.535248875E0,5.097342989E0,-4.055683156E0,-1.177066146E1,1.345287860E1
8.545190875E0,1.214535220E1,-8.548660859E0,-1.481031897E1,2.097462111E1
8.555133875E0,1.536948820E1,-1.496737518E1,-1.294974431E1,2.505871834E1
8.565075875E0,1.247397274E1,-1.929631451E1,-7.223512223E0,2.408582319E1
8.575018875E0,9.048743978E0,-1.648159120E1,-5.648979839E0,1.963246264E1
8.584960875E0,6.356021647E0,-8.528662212E0,-4.639580848E0,1.160443022E1
8.594902875E0,4.489617308E0,-6.458173674E-1,-3.311091405E0,5.615787562E0
8.604845875E0,1.722936471E0,4.001161378E0,-2.199854676E0,4.880283091E0
8.614787875E0,-1.165846508E0,6.046588165E0,3.847830427E-1,6.169966329E0
8.624730875E0,-3.224686807E0,5.954372896E0,4.601987929E0,8.187273935E0
8.634672875E0,-3.047136981E0,4.324130580E0,7.422993493E0,9.115041495E0
8.644614875E0,-2.135133600E0,2.640293271E0,7.279533226E0,8.032530612E0
8.654557875E0,-1.453220201E0,1.071714522E0,4.517888596E0,4.865361069E0
8.664499875E0,2.159552157E-2,-7.995155239E-1,1.756367927E0,1.929901483E0
8.674442875E0,2.896175614E0,-3.140832472E0,7.242786692E-1,4.333271443E0
8.684384875E0,4.977789649E0,-6.917291785E0,-1.134579107E-1,8.522921337E0
8.694326875E0,4.894836077E0,-1.078870929E1,-2.335073730E0,1.207510819E1
8.704269875E0,2.356654488E0,-1.129794448E1,-3.035621767E0,1.193366537E1
8.714211875E0,-3.405657547E0,-8.013214365E0,-3.746208158E0,9.478617164E0
8.724154875E0,-1.039970690E1,-1.854571329E0,-2.528355929E0,1.086213249E1
8.734096875E0,-1.507079606E1,4.361686077E0,-4.224234702E-1,1.569495590E1
8.744039875E0,-1.653688364E1,8.513644223E0,-9.486462741E-1,1.862392516E1
8.753981875E0,-1.587713762E1,9.204016204E0,1.747159439E0,1.843502046E1
8.763923875E0,-1.211357142E1,7.637352419E0,7.894646280E0,1.635216207E1
8.773866875E0,-6.742135516E0,5.113269051E0,1.100240865E1,1.388001830E1
8.783808875E0,-3.066253283E0,9.772281951E-1,1.172120337E1,1.215497810E1
8.793751875E0,-5.497104844E-1,-3.482299926E0,1.086943478E1,1.142686339E1
8.803693875E0,1.370768174E0,-7.282580211E0,8.623911016E0,1.137043628E1
8.813635875E0,2.924476138E0,-9.350083745E0,6.192711253E0,1.158992232E1
8.823578875E0,4.930782128E0,-8.787897933E0,2.748136393E0,1.044471235E1
8.833520875E0,6.405042949E0,-5.983324800E0,-9.727450617E-1,8.818785846E0
8.843463875E0,5.856726149E0,-2.002302402E0,-2.573612208E0,6.703277996E0
8.853405875E0,3.624317100E0,4.543736798E-1,-1.674976877E0,4.018417278E0
8.863347875E0,1.740860380E0,6.378335792E-1,-2.680281429E-1,1.873303398E0
8.873290875E0,5.448625579E-1,3.675320023E-1,1.152240622E0,1.326504214E0
8.883232875E0,-1.183437564E0,6.233523649E-1,2.207396414E0,2.581025294E0
8.893175875E0,-3.055684149E0,1.110459343E0,1.884473405E0,3.757867159E0
8.903117875E0,-4.383724818E0,1.777527246E0,1.052164357E0,4.845997959E0
8.913060875E0,-5.390296095E0,2.380761681E0,5.590987008E-2,5.892914736E0
8.923002875E0,-6.158881018E0,2.974391479E0,-1.130951568E0,6.932378488E0
8.932944875E0,-5.358491335E0,3.200638379E0,-1.636555554E0,6.452583165E0
8.942887875E0,-3.059726036E0,2.733544081E0,-5.765231842E-1,4.143255441E0
8.952829875E0,-7.615295260E-1,1.867952682E0,5.170248413E-1,2.082423859E0
8.962772875E0,8.997213782E-1,1.116327024E0,9.921875654E-1,1.743594204E0
8.972714875E0,1.767897759E0,5.060776842E-1,7.422620733E-1,1.983060789E0
8.982656875E0,2.358443443E0,3.367569369E-1,3.503791952E-1,2.407992170E0
8.992599875E0,2.825709356E0,6.128250378E-1,1.049744779E-1,2.893303913E0
9.002541875E0,2.888670713E0,9.180847782E-1,-5.817570269E-2,3.031613854E0
9.012484875E0,2.866878140E0,1.423526870E0,-5.433649398E-1,3.246638951E0
9.022426875E0,2.871352429E0,1.899435260E0,-1.712690980E0,3.845234645E0
9.032368875E0,2.994474910E0,1.986777459E0,-3.403006712E0,4.949203910E0
9.042311875E0,3.070517658E0,1.420254768E0,-4.623650402E0,5.729166198E0
9.052253875E0,2.708004905E0,2.735263163E-1,-3.703693053E0,4.596242970E0
9.062196875E0,2.759120680E0,-9.495346123E-1,-1.225786901E0,3.164951253E0
9.072138875E0,3.639794972E0,-1.498715047E0,4.705453241E-1,3.964299072E0
9.082081875E0,4.984755437E0,-1.655896974E0,4.112756073E-1,5.268674328E0
9.092023875E0,6.457759107E0,-1.333045301E0,-4.449704799E-1,6.608907715E0
9.101965875E0,7.639173242E0,-6.217052042E-1,-1.775491538E0,7.867391905E0
9.111908875E0,8.124127275E0,2.338342470E-1,-3.635016628E0,8.903340290E0
9.121850875E0,7.764611805E0,9.273140234E-1,-4.962224361E0,9.261359424E0
9.131793875E0,6.114324650E0,1.020451398E0,-4.741378534E0,7.804290959E0
9.141735875E0,3.916542812E0,5.074739993E-2,-3.905871059E0,5.531519829E0
9.151677875E0,2.293624865E0,-1.193780996E0,-2.749130127E0,3.774062075E0
9.161620875E0,1.574286947E0,-1.999060705E0,-1.358102959E0,2.884279241E0
9.171562875E0,1.821188990E0,-2.261324115E0,-5.370667577E-4,2.903500711E0
9.181505875E0,2.033602401E0,-2.813787176E0,1.890632862E-1,3.476878186E0
9.191447875E0,1.476394617E0,-3.421753762E0,-1.090104893E0,3.882842844E0
9.201389875E0,1.192996738E0,-3.678077570E0,-3.008050683E0,4.898965681E0
9.211335250E0,1.681505001E0,-3.431639650E0,-4.555501980E0,5.946108647E0
9.221277250E0,2.827768453E0,-3.228367630E0,-5.715583134E0,7.147483651E0
9.231220250E0,4.092624110E0,-3.520323200E0,-6.152618065E0,8.185166864E0
9.241162250E0,5.582947817E0,-3.475718300E0,-5.926838942E0,8.853097982E0
9.251105250E0,6.721701837E0,-2.873290781E0,-5.453036134E0,9.119905623E0
9.261047250E0,6.619970809E0,-1.355679873E0,-5.834946440E0,8.927960651E0
9.270989250E0,6.119746188E0,6.057019597E-1,-5.500747660E0,8.250841962E0
9.280932250E0,5.514009145E0,2.319160094E0,-4.449248716E0,7.455106608E0
9.290874250E0,4.699813309E0,3.267341661E0,-4.177083632E0,7.086028107E0
9.300817250E0,3.587818780E0,2.955292134E0,-2.989750945E0,5.526735556E0
9.310759250E0,1.460733288E0,1.530358424E0,-1.330487144E0,2.499186804E0
9.320701250E0,-1.068942650E0,-6.754013550E-1,2.193185341E-1,1.283318354E0
9.330644250E0,-2.858760450E0,-3.578082581E0,2.744121695E0,5.339043936E0
9.340586250E0,-3.316671403E0,-7.049924762E0,5.602202114E0,9.596166780E0
9.350529250E0,-2.557889630E0,-1.041537627E1,6.123703583E0,1.235000436E1
9.360471250E0,-1.780202493E0,-1.393328925E1,6.116899763E0,1.532064401E1
9.370413250E0,-1.416269598E0,-1.582175864E1,6.236090577E0,1.706524807E1
9.380356250E0,-5.659536110E-1,-1.415153891E1,3.945253226E0,1.470208761E1
9.390298250E0,1.265203420E0,-9.464997320E0,1.222326811E-1,9.549966219E0
9.400241250E0,1.232293390E0,-5.530335156E0,-1.000369428E0,5.753598259E0
9.410183250E0,-1.465339286E0,-4.466945899E0,2.494059670E-1,4.707762550E0
9.420125250E0,-3.159288624E0,-4.656302716E0,1.451035535E0,5.811003675E0
9.430068250E0,-2.109618543E0,-3.828296633E0,3.353104527E0,5.509052140E0
9.440010250E0,2.133550466E0,-2.146342712E0,3.267366804E0,4.453595229E0
9.449953250E0,4.069959425E0,-1.008494427E0,2.696397890E0,4.985197319E0
9.459895250E0,4.008349068E0,2.784794927E-2,2.657354861E0,4.809279844E0
9.469838250E0,2.467291117E0,5.834357625E-1,1.673926717E0,3.038083837E0
9.479780250E0,-8.590580133E-1,9.966883135E-1,1.480189021E0,1.980486759E0
9.489722250E0,-2.673461602E0,1.952321572E0,1.955707694E0,3.844964114E0
9.499665250E0,-4.004251339E0,2.804253291E0,2.527052000E0,5.503077059E0
9.509607250E0,-5.575279779E0,3.766681014E0,4.046355093E0,7.851408791E0
9.519550250E0,-6.854920120E0,4.325811070E0,4.560137068E0,9.300398989E0
9.529492250E0,-7.635533350E0,4.796744065E0,4.502375933E0,1.007876541E1
9.539434250E0,-7.747484141E0,5.325755113E0,4.462157907E0,1.040663400E1
9.549377250E0,-7.604213909E0,5.561903688E0,4.604679110E0,1.048627253E1
9.559319250E0,-7.155811990E0,5.666439625E0,4.826303494E0,1.032508541E1
9.569262250E0,-6.552042536E0,5.999095910E0,5.200887823E0,1.029405883E1
9.579204250E0,-6.034089156E0,6.405863314E0,5.261192497E0,1.025307092E1
9.589146250E0,-5.966866057E0,6.989765099E0,4.950569690E0,1.043879528E1
9.599089250E0,-6.398696966E0,7.309181533E0,4.469134512E0,1.069301739E1
9.609031250E0,-6.623354008E0,7.408096542E0,4.541680624E0,1.092591303E1
9.618974250E0,-6.692157610E0,7.301158569E0,4.755779057E0,1.098677953E1
9.628916250E0,-6.493908348E0,6.930852647E0,4.508340385E0,1.051345315E1
9.638858250E0,-6.182017280E0,6.856428702E0,4.053873442E0,1.008274973E1
9.648801250E0,-6.215154621E0,6.822763942E0,3.453518177E0,9.854189088E0
9.658743250E0,-6.420729275E0,6.397673703E0,2.913817248E0,9.520836318E0
9.668686250E0,-6.194144990E0,5.423592480E0,1.670098107E0,8.400715162E0
9.678628250E0,-5.067669539E0,3.794088668E0,-2.615929677E0,6.849778935E0
9.688571250E0,-3.399319458E0,1.040203292E0,-1.055771972E1,1.114014548E1
9.698513250E0,1.074441225E0,-2.341770692E0,-1.924090630E1,1.941264508E1
9.708455250E0,9.447113026E0,-7.011840093E0,-1.742406764E1,2.102408093E1
9.718398250E0,1.726054090E1,-1.428193884E1,-1.667179528E1,2.792577316E1
9.728340250E0,1.768729057E1,-2.289859229E1,-1.010879974E1,3.064920242E1
9.738283250E0,1.193874786E1,-2.295244281E1,-3.867725286E0,2.615927426E1
9.748225250E0,7.787471495E0,-1.219029156E1,-3.619974081E0,1.491147656E1
9.758167250E0,4.596281047E0,-1.495830030E0,-2.490044095E0,5.437244388E0
9.768110250E0,2.460655112E0,5.669952632E0,-2.173427600E0,6.551867975E0
9.778052250E0,3.113461071E-1,9.769553640E0,-7.417839172E-1,9.802619961E0
9.787995250E0,-2.908494820E0,1.015005652E1,9.431023827E-1,1.060058638E1
9.797937250E0,-4.028946177E0,7.238094594E0,3.220866237E0,8.887991897E0
9.807879250E0,-3.640313036E0,2.895371037E0,3.074958326E0,5.575878509E0
9.817822250E0,-3.125266892E0,-6.543648273E-1,-1.298024572E0,3.446788979E0
9.827764250E0,4.666338292E-1,-3.120029833E0,-5.192736804E0,6.075923700E0
9.837707250E0,6.820237361E0,-6.816023857E0,-3.870848576E0,1.039024964E1
9.847649250E0,1.015435890E1,-1.301150728E1,3.260562984E0,1.682384015E1
9.857592250E0,6.508224671E0,-1.569863148E1,1.073005471E1,2.009821118E1
9.867534250E0,1.296386182E-1,-1.122343808E1,1.368066380E1,1.769584501E1
9.877476250E0,-3.678486583E0,-3.080441844E0,1.193011386E1,1.285877141E1
9.887419250E0,-6.828990642E0,2.490457200E0,7.283532722E0,1.029015739E1
9.897361250E0,-1.052482445E1,5.151327408E0,1.074507883E0,1.176701623E1
9.907304250E0,-1.364184999E1,5.229311723E0,-1.626782810E0,1.470007464E1
9.917246250E0,-1.516554668E1,2.978918393E0,3.267622912E0,1.579699719E1
9.927188250E0,-1.486777488E1,2.361438972E-1,7.790203314E0,1.678671384E1
9.937131250E0,-1.244305734E1,-2.378453200E0,8.187982378E0,1.508409000E1
9.947073250E0,-9.593443691E0,-4.149245038E0,5.569199259E0,1.184341068E1
9.957016250E0,-6.568175588E0,-5.383542561E0,2.806689241E0,8.944325886E0
9.966958250E0,-2.947664441E0,-5.630938840E0,1.903021942E0,6.634582910E0
9.976900250E0,-5.300622319E-1,-4.737535159E0,1.584500717E0,5.023529424E0
9.986843250E0,1.756661164E0,-3.721927010E0,1.483921006E0,4.374999505E0
9.996785250E0,3.588490625E0,-2.384285213E0,1.443029673E0,4.543612613E0
1.000672825E1,4.737112990E0,-5.785410583E-1,1.214922189E0,4.924528928E0
1.001667025E1,3.822453803E0,8.454752237E-1,2.805236793E-1,3.924878975E0
1.002661225E1,1.396477212E0,1.883866464E0,-1.011450048E0,2.553846639E0
1.003655525E1,-6.834846190E-1,2.483732318E0,-1.042800114E0,2.779120280E0
1.004649725E1,-2.274502277E0,2.444478205E0,-4.836368014E-1,3.373831480E0
1.005644025E1,-3.496585551E0,2.230849596E0,-8.933304445E-1,4.242739648E0
1.006638225E1,-3.897274482E0,1.917661031E0,-6.618707518E-1,4.393659649E0
1.007632525E1,-3.352642597E0,1.575067989E0,-1.301033257E-1,3.706477901E0
1.008626725E1,-2.148001713E0,1.343474979E0,1.890379970E-1,2.540584922E0
1.009620925E1,-5.827215251E-1,1.290619658E0,3.433720382E-1,1.457109411E0
1.010615225E1,1.016154133E0,1.295871043E0,1.088353944E-1,1.650362422E0
1.011609425E1,2.601177737E0,1.996015475E0,-1.289242347E-1,3.281284026E0
1.012603725E1,3.463176900E0,2.797631319E0,-1.096811941E-1,4.453354376E0
1.013597925E1,4.448193586E0,3.772309543E0,-1.026457073E0,5.922023269E0
1.014592125E1,5.028114295E0,4.248738921E0,-2.130291082E0,6.918949044E0
1.015586425E1,5.096919066E0,4.008213120E0,-2.175631123E0,6.839424476E0
1.016580625E1,5.324065853E0,3.033314456E0,-1.130494242E0,6.230946238E0
1.017574925E1,5.996195691E0,1.763791552E0,2.458479363E-1,6.255059121E0
1.018569125E1,7.149092955E0,2.507186669E-1,1.735091078E-1,7.155591893E0
1.019563325E1,7.778902985E0,-1.163026396E0,-5.301816612E-1,7.883213472E0
1.020557325E1,7.554634783E0,-2.031855399E0,-1.231262818E0,7.919403462E0
1.021551525E1,6.860370310E0,-2.185606180E0,-2.219773216E0,7.534517124E0
1.022545825E1,5.896136967E0,-1.678964240E0,-3.948437327E0,7.292016825E0
1.023540025E1,4.691974239E0,-9.232098627E-1,-6.453318146E0,8.031952055E0
1.024534225E1,3.603645146E0,-7.931438130E-1,-8.191018252E0,8.983769557E0
1.025528525E1,3.260427328E0,-1.619524369E0,-7.250681895E0,8.113299790E0
1.026522725E1,3.807248411E0,-2.759541972E0,-4.405798934E0,6.443700536E0
1.027517025E1,4.622012889E0,-3.060916822E0,-1.799934946E0,5.828548768E0
1.028511225E1,5.012050824E0,-2.873552737E0,5.657681081E-1,5.805002355E0
1.029505525E1,5.132560769E0,-3.151108369E0,9.840220749E-1,6.102537460E0
1.030499725E1,4.776272086E0,-3.197638173E0,-9.740467250E-1,5.829788327E0
1.031493925E1,4.031402008E0,-3.231760184E0,-4.345505954E0,6.751288620E0
1.032488225E1,3.971410160E0,-4.098315790E0,-6.336239347E0,8.527380608E0
1.033482425E1,5.327075415E0,-5.527257766E0,-6.058150449E0,9.779033579E0
1.034476725E1,7.021709608E0,-5.783857563E0,-5.545147322E0,1.065392289E1
1.035470925E1,8.328543595E0,-4.569235920E0,-4.757304303E0,1.062424113E1
1.036465125E1,8.740001636E0,-2.871956447E0,-4.043459259E0,1.004914550E1
1.037459425E1,7.634262750E0,-1.057338558E0,-3.648094802E0,8.526929591E0
1.038453625E1,6.558248770E0,-1.575684285E-1,-2.727091094E0,7.104398678E0
1.039447925E1,4.389709150E0,-4.100126088E-2,-3.441148977E0,5.577878970E0
1.040442125E1,9.894729955E-1,-1.195292501E0,-5.768744264E0,5.973792042E0
1.041436325E1,-2.994468771E0,-3.098556519E0,-6.254749627E0,7.595379425E0
1.042430625E1,-7.096944562E0,-5.615603347E0,-3.455688663E0,9.687280692E0
1.043424825E1,-8.906211664E0,-8.768017985E0,3.083183019E0,1.287263621E1
1.044419125E1,-8.360519094E0,-1.237526940E1,7.558589255E0,1.673851379E1
1.045413325E1,-7.340506822E0,-1.535556949E1,8.571163284E0,1.905626917E1
1.046407525E1,-4.641748411E0,-1.529460876E1,6.769325069E0,1.735784109E1
1.047401825E1,-1.928958437E-1,-1.164402597E1,2.830242995E0,1.198460783E1
1.048396025E1,3.168212060E0,-7.217113615E0,-1.602830422E0,8.043218382E0
1.049390325E1,2.962196818E0,-5.307173247E0,-2.924915264E0,6.745059463E0
1.050384525E1,1.495346027E0,-4.276340702E0,1.407892585E-1,4.532435455E0
1.051378725E1,2.740719200E0,-2.732443635E0,2.969515486E0,4.878095138E0
1.052373025E1,3.811312226E0,-1.685913071E0,2.614353561E0,4.919679696E0
1.053367225E1,2.693965448E0,-6.357028538E-1,1.802882673E0,3.303324672E0
1.054361525E1,7.305964395E-1,-2.138736069E-2,2.453198158E0,2.559767524E0
1.055355725E1,-7.961890429E-2,3.668812072E-1,3.587604479E0,3.607193770E0
1.056350025E1,-4.095331371E-1,1.200266728E0,3.945135697E0,4.143965887E0
1.057344225E1,-1.146048128E0,1.990771108E0,4.102533094E0,4.701847903E0
1.058338425E1,-2.705831788E0,3.059696508E0,4.737665844E0,6.255297438E0
1.059332725E1,-4.232811982E0,4.045289145E0,5.122123489E0,7.779280853E0
1.060326925E1,-5.711508794E0,4.992872542E0,5.682194363E0,9.478261533E0
1.061321225E1,-7.152266239E0,5.736262397E0,5.804376612E0,1.085128594E1
1.062315425E1,-8.348289642E0,6.400057029E0,5.901774852E0,1.206174184E1
1.063309625E1,-8.790201151E0,6.775986217E0,6.254912764E0,1.273991990E1
1.064303925E1,-8.020619863E0,6.872800321E0,6.581610736E0,1.244521302E1
1.065298125E1,-6.615827472E0,6.811117458E0,6.742648902E0,1.164576354E1
1.066292425E1,-5.173575479E0,6.982758965E0,6.817979166E0,1.104579766E1
1.067286625E1,-4.234552406E0,7.252049559E0,6.650679216E0,1.071238493E1
1.068280825E1,-4.034118917E0,7.394105324E0,6.200583944E0,1.045916585E1
1.069275125E1,-4.457911366E0,7.629256364E0,5.849533489E0,1.059696034E1
1.070269325E1,-4.669333236E0,7.958175108E0,5.410298250E0,1.069609981E1
1.071263625E1,-4.942529184E0,8.073998510E0,5.161792170E0,1.078249253E1
1.072257825E1,-5.473842866E0,7.906254757E0,5.192139804E0,1.092840957E1
1.073252025E1,-6.054260881E0,7.293189399E0,4.981970408E0,1.070816117E1
1.074246325E1,-6.165300676E0,6.183952709E0,3.295414728E0,9.333378903E0
1.075240525E1,-5.628826241E0,4.320424615E0,-4.222093159E-1,7.108306016E0
1.076234825E1,-4.641976745E0,1.630576776E0,-6.306919069E0,7.998997241E0
1.077229025E1,-1.375162795E0,-1.862648088E0,-1.305175717E1,1.325552322E1
1.078223225E1,5.244290535E0,-6.718484699E0,-2.051216816E1,2.221237634E1
1.079217525E1,1.274199741E1,-1.295304915E1,-2.203783303E1,2.856231897E1
1.080211725E1,1.400097194E1,-1.895228539E1,-1.445749798E1,2.764481117E1
1.081206025E1,9.473923679E0,-2.010752915E1,-8.614685279E0,2.383864008E1
1.082200225E1,6.653470677E0,-1.319172080E1,-4.523119515E0,1.545149766E1
1.083194525E1,5.056556321E0,-1.776501060E0,-1.483314358E0,5.561019630E0
1.084188725E1,2.423805374E0,6.527539194E0,-2.809040406E-1,6.968680470E0
1.085182925E1,-6.922414823E-1,9.996360118E0,2.796423869E0,1.040319183E1
1.086177225E1,-2.284255871E0,8.862207858E0,6.018206949E0,1.095332680E1
1.087171425E1,-1.689253585E0,6.194142067E0,7.364881525E0,9.770488908E0
1.088165725E1,-1.900393619E0,3.621518623E0,5.563563713E0,6.905080320E0
1.089159925E1,-3.055150298E0,-7.750700694E-1,1.428299367E-1,3.155166770E0
1.090154125E1,-1.372567509E0,-7.506476530E0,-7.298997438E0,1.055966359E1
1.091148425E1,5.991473479E0,-1.726191499E1,-9.740430998E0,2.070621790E1
1.092142625E1,1.238324033E1,-2.415893623E1,-2.491382815E0,2.726180165E1
1.093136925E1,7.190232210E0,-1.885005268E1,7.789847803E0,2.162650351E1
1.094131125E1,-1.328282159E0,-7.149366020E0,8.644521282E0,1.129626116E1
1.095125325E1,-6.209449493E0,2.095788270E0,6.392449801E0,9.154944344E0
1.096119625E1,-1.074721394E1,7.166024737E0,5.378853679E0,1.399237596E1
1.097113825E1,-1.366650068E1,8.420547779E0,7.436011734E0,1.769104678E1
1.098108125E1,-1.369989530E1,6.461263343E0,8.879551284E0,1.755794652E1
1.099102325E1,-1.202563046E1,3.334690475E0,1.014504078E1,1.608284182E1
1.100096525E1,-9.797990988E0,4.837378120E-1,1.090923795E1,1.467126792E1
1.101090825E1,-6.808506092E0,-2.988221898E0,8.500820110E0,1.129376677E1
1.102085025E1,-4.197457962E0,-5.891679050E0,6.199035602E0,9.526729647E0
1.103079325E1,-1.997115190E0,-7.455631481E0,4.889518912E0,9.136865166E0
1.104073525E1,-6.534234256E-2,-7.337339385E0,3.481853199E0,8.121829878E0
1.105067725E1,1.892120978E0,-5.546168246E0,1.589387820E0,6.071759025E0
1.106062025E1,3.325167115E0,-3.488021427E0,1.476316702E-1,4.821288721E0
1.107056225E1,3.440426846E0,-1.883318580E0,-9.619119984E-1,4.038403205E0
1.108050525E1,1.579539647E0,-4.103359598E-1,-1.479153187E0,2.202547445E0
1.109044725E1,-4.269014872E-1,1.032393166E0,-9.197102311E-1,1.447047836E0
1.110039025E1,-2.724085625E0,2.063215186E0,-1.830705333E0,3.876723025E0
1.111033225E1,-4.799875249E0,3.121113907E0,-3.071063495E0,6.497044360E0
1.112027425E1,-5.724629361E0,4.276140143E0,-1.899365094E0,7.393533905E0
1.113021725E1,-5.647889333E0,4.870179246E0,-5.015303046E-3,7.457702392E0
1.114015925E1,-4.742665798E0,5.073941263E0,8.698546046E-1,6.999600406E0
1.115010225E1,-3.265891551E0,4.800652344E0,7.916950192E-1,5.859956617E0
1.116004425E1,-6.733862583E-1,4.413657884E0,9.471581577E-1,4.564091755E0
1.116998625E1,2.606128867E0,4.260140991E0,1.637911377E0,5.255802757E0
1.117992925E1,5.612051749E0,4.038939654E0,1.538469535E0,7.083434680E0
1.118987125E1,7.826344954E0,4.060459161E0,5.346096115E-1,8.833165422E0
1.119981425E1,7.867690031E0,3.405288003E0,-1.249581560E0,8.663601265E0
1.120975713E1,6.909926047E0,2.538420156E0,-3.253717941E0,8.048436824E0
1.121969913E1,5.407050122E0,1.355406808E0,-3.713577478E0,6.698057653E0
1.122964212E1,4.795263550E0,-1.297368515E-1,-1.778017827E0,5.115929198E0
1.123958412E1,5.533304372E0,-1.231142950E0,4.573662847E-1,5.687033863E0
1.124952713E1,6.508425230E0,-2.069622565E0,1.264981226E0,6.945726315E0
1.125946913E1,6.974162389E0,-2.640573353E0,1.018580289E0,7.526557943E0
1.126941113E1,7.100754023E0,-2.620524420E0,-7.927143350E-2,7.569289259E0
1.127935412E1,6.738986206E0,-2.134955844E0,-2.585768570E0,7.527162190E0
1.128929613E1,5.308479515E0,-2.478142380E0,-6.664473383E0,8.873350544E0
1.129923913E1,3.019337564E0,-3.888480855E0,-1.032979408E1,1.144295978E1
1.130918112E1,2.063307426E0,-4.822568293E0,-9.265430680E0,1.064718780E1
1.131912413E1,3.228348919E0,-4.320815794E0,-5.469623516E0,7.681696900E0
1.132906613E1,4.924342589E0,-4.281997299E0,-2.383047942E0,6.947198593E0
1.133900813E1,6.561492221E0,-5.129216162E0,8.497819903E-1,8.371628756E0
1.134895112E1,7.265461317E0,-5.980619878E0,2.436057045E0,9.720551229E0
1.135889312E1,6.885765352E0,-6.507263389E0,1.043381254E0,9.531363267E0
1.136883613E1,6.008636227E0,-6.887240605E0,-2.328309817E0,9.431798294E0
1.137877813E1,6.376236057E0,-7.134435155E0,-5.207260119E0,1.089367290E1
1.138872013E1,7.649415810E0,-6.813502538E0,-5.658682709E0,1.170290857E1
1.139866313E1,8.901042141E0,-5.494736722E0,-5.024363306E0,1.160452108E1
1.140860513E1,9.574026257E0,-3.582226503E0,-4.837805552E0,1.130923021E1
1.141854813E1,9.332342123E0,-1.763920775E0,-4.253997322E0,1.040675354E1
1.142849012E1,7.544371750E0,-2.959527272E-1,-5.109826210E0,9.116767904E0
1.143843212E1,6.314405844E0,4.070638579E-1,-4.424786890E0,7.721150249E0
1.144837513E1,4.993297634E0,5.039358491E-1,-2.054626211E0,5.422956894E0
1.145831713E1,2.208663067E0,-8.485537827E-2,-2.975060400E0,3.706261913E0
1.146826012E1,-1.256462417E0,-2.616372312E0,-3.516266402E0,4.559411288E0
1.147820212E1,-3.925446660E0,-6.314368422E0,9.453228629E-1,7.494932646E0
1.148814413E1,-5.501275663E0,-1.005425925E1,7.481263336E0,1.368654317E1
1.149808713E1,-6.524989808E0,-1.367486454E1,1.010571007E1,1.821270952E1
1.150802912E1,-7.396851761E0,-1.637777973E1,8.487136456E0,1.987401746E1
1.151797213E1,-5.836029344E0,-1.561015492E1,3.641092762E0,1.705853838E1
1.152791413E1,-2.271291571E0,-1.121886439E1,-2.726064323E0,1.176660998E1
1.153785613E1,1.118813260E0,-7.123904319E0,-4.851064113E0,8.691063162E0
1.154779912E1,-1.412592284E0,-5.491950524E0,2.419577837E-1,5.675868311E0
1.155774112E1,-3.753118689E0,-4.025785757E0,5.696750422E0,7.921225677E0
1.156768413E1,-2.206823387E0,-2.129291646E0,6.927536691E0,7.575930107E0
1.157762613E1,-1.415517062E0,-3.726863229E-1,5.551706729E0,5.741431115E0
1.158756912E1,-1.913015126E0,8.667427164E-1,4.247392892E0,4.738271434E0
1.159751113E1,-2.037216419E0,1.664574242E0,3.028276202E0,4.011423052E0
1.160745313E1,-1.394952697E0,2.629620348E0,3.580888368E0,4.656560716E0
1.161739613E1,-1.818419749E-1,3.996966001E0,3.355027676E0,5.221591177E0
1.162733812E1,-5.119441956E-2,5.022940094E0,2.423994239E0,5.577481163E0
1.163728113E1,-1.062562460E0,6.036330979E0,3.310511946E0,6.966047661E0
1.164722313E1,-3.573720266E0,7.371051507E0,4.385759941E0,9.291865643E0
1.165716513E1,-6.984388000E0,7.848372000E0,3.966292385E0,1.122987507E1
1.166710812E1,-1.002046000E1,6.613880934E0,5.043873711E0,1.302281466E1
1.167705012E1,-1.039921690E1,4.353096517E0,7.349836639E0,1.345783267E1
1.168699313E1,-8.140629287E0,3.693313075E0,7.778471460E0,1.184968459E1
1.169693513E1,-5.978922431E0,4.878481123E0,7.670954028E0,1.088074571E1
1.170687712E1,-5.375885047E0,5.737130708E0,7.873431412E0,1.112680237E1
1.171682013E1,-5.478679683E0,5.952404723E0,7.278292447E0,1.088212268E1
1.172676213E1,-5.638499874E0,6.094140061E0,6.704746081E0,1.067168421E1
1.173670513E1,-5.713119117E0,6.260583978E0,6.476777176E0,1.066692479E1
1.174664712E1,-5.825832385E0,6.308305444E0,6.299815872E0,1.065001036E1
1.175658912E1,-5.731610352E0,6.099216614E0,6.017823372E0,1.030854008E1
1.176653213E1,-5.202689935E0,5.805080616E0,5.274731725E0,9.412212189E0
1.177647413E1,-4.866437905E0,5.052521743E0,3.425074981E0,7.806492969E0
1.178641712E1,-4.495960953E0,3.487739591E0,-1.759214644E0,5.955907026E0
1.179635913E1,-2.662962341E0,8.125214857E-1,-1.115798669E1,1.150009681E1
1.180630113E1,2.269680371E0,-3.342843248E0,-1.494835419E1,1.548481007E1
1.181624413E1,9.128413460E0,-8.742582012E0,-1.871971122E1,2.258734736E1
1.182618612E1,1.171130286E1,-1.529360304E1,-1.387846809E1,2.374154134E1
1.183612913E1,1.060253863E1,-1.972936398E1,-8.241201396E0,2.386585488E1
1.184607113E1,1.167358013E1,-1.681710911E1,-8.766556181E0,2.226971350E1
1.185601313E1,1.027524073E1,-7.806516461E0,-6.985936927E0,1.467397649E1
1.186595612E1,5.506443433E0,9.519565290E-1,-5.107153448E0,7.570347208E0
1.187589812E1,7.632221487E-1,4.412036451E0,-1.363910121E0,4.680686329E0
1.188584113E1,-8.030288234E-1,2.913065881E0,4.527368979E0,5.443149639E0
1.189578313E1,1.323765477E0,3.409224349E0,8.401440833E0,9.162934779E0
1.190572612E1,3.007606295E0,3.893417074E0,9.181909636E0,1.041690245E1
1.191566813E1,2.068720924E0,2.187083772E0,7.670100335E0,8.239743979E0
1.192561013E1,7.379332334E-2,-8.044505739E-1,3.827317517E0,3.911642309E0
1.193555313E1,1.768089840E-1,-3.057098005E0,1.991790277E0,3.652990301E0
1.194549512E1,1.543771352E0,-4.967662271E0,1.814946502E0,5.509530764E0
1.195543813E1,1.453021103E0,-8.037660404E0,-1.155156775E0,8.249220707E0
1.196538013E1,2.628604102E-1,-9.856729778E0,-2.745357796E0,1.023529223E1
1.197532213E1,-4.306579286E0,-8.449299708E0,-2.146997015E0,9.723522350E0
1.198526512E1,-9.319371829E0,-4.169512072E0,-2.416884609E0,1.049175169E1
1.199520713E1,-1.183322783E1,1.168904602E0,-1.188901056E0,1.195010898E1
1.200515013E1,-1.384348888E1,4.976014434E0,-4.287459183E-1,1.471688578E1
1.201509213E1,-1.416678494E1,6.841751021E0,1.879948976E0,1.584429111E1
1.202503412E1,-1.226593115E1,6.492708499E0,4.398356305E0,1.455863554E1
1.203497713E1,-8.745295705E0,5.298175551E0,7.371612840E0,1.260521864E1
1.204491913E1,-4.578112578E0,3.272096032E0,1.121144077E1,1.254440637E1
1.205486212E1,-1.848515952E0,1.123881626E-1,1.243904264E1,1.257614505E1
1.206480412E1,1.731432183E-1,-3.249300077E0,1.072116928E1,1.120407962E1
1.207474612E1,1.655186830E0,-5.838884540E0,8.352511332E0,1.032456593E1
1.208468913E1,2.704158899E0,-7.032490119E0,5.199590911E0,9.154460021E0
1.209463113E1,3.942076141E0,-6.373980201E0,1.191561978E0,7.588636758E0
1.210457412E1,5.130698431E0,-3.956817849E0,-2.633274858E0,6.993898080E0
1.211451613E1,4.864810917E0,-1.154234523E0,-4.567027427E0,6.771734055E0
1.212445813E1,3.468262516E0,7.941735077E-1,-3.649026264E0,5.096562480E0
1.213440113E1,1.754330318E0,2.134030230E0,-1.426913577E0,3.109315398E0
1.214434312E1,8.389585018E-3,2.972553699E0,3.012643379E-1,2.987792844E0
1.215428613E1,-1.133637852E0,3.838095982E0,1.840637999E0,4.405004403E0
1.216422813E1,-3.215758401E0,4.342605443E0,1.446280140E0,5.593840396E0
1.217417013E1,-5.102912462E0,4.233267773E0,-1.039529693E-1,6.631069134E0
1.218411312E1,-5.394727700E0,3.771032512E0,1.741585873E-2,6.582102739E0
1.219405513E1,-5.045819664E0,2.667844766E0,6.880453011E-1,5.749008446E0
1.220399813E1,-3.562226102E0,1.579702492E0,1.247657826E0,4.091645734E0
1.221393917E1,-1.538088735E0,6.601062083E-1,1.415907948E0,2.192316693E0
1.222388217E1,3.546192671E-1,-7.377431989E-3,1.302115723E0,1.349560894E0
1.223382417E1,1.775682011E0,-3.868786848E-1,5.458187239E-1,1.897535191E0
1.224376617E1,3.008299775E0,-3.376106304E-1,2.185290138E-1,3.035062339E0
1.225370917E1,3.870117674E0,6.792125702E-3,-3.615321743E-1,3.886973431E0
1.226365117E1,4.353366366E0,4.659657848E-1,-1.532419275E0,4.638667014E0
1.227359417E1,4.453599045E0,7.302868295E-1,-3.088361313E0,5.468623127E0
1.228353617E1,4.538250647E0,6.983130848E-1,-5.291479320E0,7.005934163E0
1.229347817E1,4.170126030E0,3.215588540E-1,-7.192750021E0,8.320396870E0
1.230342117E1,3.687224370E0,-5.009941149E-1,-5.808733372E0,6.898405761E0
1.231336317E1,3.806416645E0,-1.685237133E0,-1.633516756E0,4.471823885E0
1.232330617E1,4.554116775E0,-2.619308783E0,1.409996121E0,5.439563141E0
1.233324817E1,5.400451539E0,-2.560308623E0,2.923620690E0,6.653391242E0
1.234319017E1,6.332505316E0,-1.592259972E0,2.881556405E0,7.137176102E0
1.235313317E1,6.563701884E0,-3.989987934E-1,1.395533910E0,6.722268765E0
1.236307517E1,6.141431172E0,1.434532499E-1,-1.443292798E0,6.310376358E0
1.237301817E1,4.700686591E0,-2.098238254E-1,-5.138658831E0,6.967517136E0
1.238296017E1,2.330096873E0,-1.397140725E0,-8.298429265E0,8.731854437E0
1.239290217E1,4.232534824E-1,-2.831104290E0,-7.903819392E0,8.406227215E0
1.240284517E1,9.837940335E-2,-3.941049078E0,-3.938990565E0,5.572898080E0
1.241278717E1,1.365784738E0,-4.769785477E0,6.098265857E-2,4.961848479E0
1.242273017E1,2.569867651E0,-5.727155358E0,2.256879646E0,6.670684671E0
1.243267217E1,3.348265956E0,-6.168424843E0,2.217304521E0,7.360488387E0
1.244261417E1,4.208725839E0,-5.851023944E0,-4.067291048E-1,7.218953037E0
1.245255717E1,5.325001407E0,-5.281443159E0,-3.596456579E0,8.317678868E0
1.246249917E1,6.221167898E0,-4.812984706E0,-5.471721497E0,9.581622406E0
1.247244217E1,7.608335027E0,-4.453846967E0,-6.323183684E0,1.084924728E1
1.248238417E1,8.667345303E0,-3.995902392E0,-6.185712136E0,1.137335242E1
1.249232617E1,9.567520645E0,-2.990071372E0,-5.788123691E0,1.157498829E1
1.250226917E1,1.005277990E1,-1.595411621E0,-4.710767190E0,1.121583923E1
1.251221117E1,8.851858286E0,-2.187969625E-2,-4.353684162E0,9.864605396E0
1.252215417E1,6.895316194E0,1.004354598E0,-3.266435927E0,7.695694721E0
1.253209617E1,6.052084547E0,8.625707281E-1,-1.338192020E0,6.257995966E0
1.254203817E1,4.145770622E0,-6.911408901E-4,-1.397725446E0,4.375048680E0
1.255198117E1,5.509973835E-1,-1.186781879E0,-1.846717933E0,2.263275606E0
1.256192317E1,-2.788334539E0,-3.091941563E0,-1.115830193E-1,4.165016555E0
1.257186617E1,-4.769198416E0,-5.479477828E0,4.183952941E0,8.383041991E0
1.258180817E1,-5.865719751E0,-8.093962659E0,7.929920193E0,1.275940963E1
1.259175017E1,-6.284090370E0,-1.051811185E1,8.740463566E0,1.505045421E1
1.260169317E1,-5.325710675E0,-1.129737028E1,5.644161733E0,1.370585025E1
1.261163517E1,-2.893008762E0,-9.881512617E0,3.400872186E-2,1.029635605E1
1.262157817E1,-9.812772457E-1,-7.497711554E0,-3.029935935E0,8.146109215E0
1.263152017E1,-3.162038277E-1,-5.583230823E0,-1.645622685E0,5.829281714E0
1.264146317E1,-1.322175327E-1,-4.388486205E0,1.806126709E0,4.747461041E0
1.265140517E1,-1.729025177E0,-3.813846994E0,5.412035458E0,6.842885704E0
1.266134717E1,-3.541500061E0,-3.184866099E0,6.708544432E0,8.227403184E0
1.267129017E1,-2.643678516E0,-1.685194448E0,6.118634048E0,6.875070838E0
1.268123217E1,-1.903048547E0,-5.574776334E-1,4.452231381E0,4.873883396E0
1.269117517E1,-2.081136317E0,3.551054996E-1,4.294651258E0,4.785525856E0
1.270111717E1,-1.241060705E0,1.498857719E0,2.931955311E0,3.518972589E0
1.271105917E1,-2.121004388E-1,2.455334145E0,2.297145474E0,3.369054717E0
1.272100217E1,2.415262592E-1,3.687357686E0,2.802404401E0,4.637716256E0
1.273094417E1,-4.707470530E-1,4.717749935E0,3.119434294E0,5.675353518E0
1.274088717E1,-2.261775812E0,5.478713597E0,3.416455893E0,6.841352452E0
1.275082917E1,-4.446085080E0,6.299949188E0,3.190041762E0,8.344662891E0
1.276077117E1,-7.417745032E0,6.879455622E0,3.564032307E0,1.072623780E1
1.277071417E1,-1.024667591E1,5.833918499E0,5.037710745E0,1.282214888E1
1.278065617E1,-1.035549844E1,4.072916654E0,6.819652054E0,1.305115521E1
1.279059917E1,-7.804984490E0,3.727207046E0,7.338000705E0,1.134266766E1
1.280054117E1,-5.404280881E0,4.867992387E0,7.295861576E0,1.030209677E1
1.281048317E1,-5.231954080E0,5.480326844E0,7.274550814E0,1.050363820E1
1.282042617E1,-5.816073382E0,5.851069552E0,6.594084016E0,1.056142360E1
1.283036817E1,-6.145749925E0,6.198757274E0,5.927182758E0,1.055112929E1
1.284031117E1,-6.384532671E0,6.324821489E0,5.705115448E0,1.064490331E1
1.285025317E1,-6.300490640E0,6.100980719E0,5.288307790E0,1.024130594E1
1.286019517E1,-5.711173164E0,5.714966837E0,4.692160473E0,9.343164066E0
1.287013817E1,-4.975032102E0,5.084468005E0,3.469063292E0,7.914364121E0
1.288008017E1,-4.296628202E0,4.017836468E0,-2.022130895E-1,5.885993027E0
1.289002317E1,-2.720835743E0,2.192429881E0,-7.207088563E0,8.009483222E0
1.289996517E1,1.153443394E0,-7.126025105E-1,-1.258962833E1,1.266242376E1
1.290990717E1,7.610795535E0,-4.576688781E0,-1.568179618E1,1.802190390E1
1.291985017E1,1.312524731E1,-1.005862712E1,-1.641574336E1,2.330074520E1
1.292979217E1,1.385354258E1,-1.605807737E1,-1.091463142E1,2.385186932E1
1.293973517E1,1.363515025E1,-1.782466857E1,-8.260332316E0,2.391378727E1
1.294967717E1,1.161888060E1,-1.289615691E1,-7.432375935E0,1.888251735E1
1.295961917E1,6.651121266E0,-3.495922185E0,-5.843048927E0,9.518408836E0
1.296956217E1,1.648737936E0,1.667715951E0,-2.205158392E0,3.219058373E0
1.297950417E1,3.552095801E-1,4.970589387E-1,2.346268078E0,2.424503110E0
1.298944717E1,1.715140378E0,3.626495773E0,5.628471315E0,6.911791913E0
1.299938917E1,3.160005785E0,6.058987770E0,8.786476475E0,1.113099898E1
1.300933117E1,1.537418644E0,5.314524951E0,1.033688325E1,1.172429046E1
1.301927417E1,-1.136394083E0,3.136866306E0,8.349839154E0,8.991725954E0
1.302921617E1,-2.876705263E0,4.899025315E-1,5.522051990E0,6.245678173E0
1.303915917E1,-3.886320308E0,-2.191316571E0,3.875554415E0,5.909761068E0
1.304910117E1,-4.010129837E0,-5.152425515E0,2.033321296E0,6.838349618E0
1.305904317E1,-3.443356301E0,-9.206142837E0,-3.844011025E0,1.055396557E1
1.306898617E1,-9.272380096E-1,-1.219127624E1,-1.099772270E1,1.644496552E1
1.307892817E1,-6.294437018E-1,-1.152521990E1,-1.023418626E1,1.542612918E1
1.308887117E1,-3.628341739E0,-6.898677174E0,-6.020191494E0,9.848823084E0
1.309881317E1,-7.095855811E0,-8.840165609E-1,-5.478949240E-1,7.171669528E0
1.310875517E1,-1.026601032E1,4.192185820E0,1.704415123E0,1.121919875E1
1.311869817E1,-1.186043025E1,8.325756227E0,4.620317781E0,1.520971265E1
1.312864017E1,-1.179600095E1,9.676718566E0,8.141451405E0,1.729357544E1
1.313858317E1,-9.706172161E0,7.954785478E0,9.491255411E0,1.573443101E1
1.314852517E1,-5.954367633E0,5.340211769E0,1.070667754E1,1.336432937E1
1.315846817E1,-3.248792831E0,1.749558259E0,1.228073513E1,1.282310665E1
1.316841017E1,-9.628317654E-1,-2.396517003E0,1.182168660E1,1.210052118E1
1.317835217E1,6.993905805E-1,-6.123281999E0,8.844666796E0,1.078016050E1
1.318829517E1,1.874261535E0,-8.303746723E0,5.233586622E0,9.992772132E0
1.319823717E1,3.964162536E0,-8.234209880E0,1.334849313E0,9.235725183E0
1.320818038E1,5.934280694E0,-5.864697073E0,-2.997106158E0,8.865269563E0
1.321812237E1,5.962123965E0,-2.205671486E0,-5.881859236E0,8.660726121E0
1.322806437E1,4.541946965E0,8.978341162E-1,-5.126082054E0,6.907394991E0
1.323800738E1,2.711241632E0,2.502264483E0,-2.357235408E0,4.378209394E0
1.324794938E1,4.291511303E-1,3.441101030E0,1.017859546E-1,3.469251702E0
1.325789237E1,-1.573184600E0,4.029303442E0,1.790491108E0,4.681458579E0
1.326783438E1,-3.356079298E0,4.178448957E0,2.133571224E0,5.768433939E0
1.327777638E1,-5.577263739E0,3.795639349E0,3.248238661E-1,6.754129065E0
1.328771938E1,-6.535197877E0,3.185553732E0,-8.033056891E-1,7.314496831E0
1.329766137E1,-5.889331977E0,2.395078588E0,-2.904083973E-1,6.364351469E0
1.330760438E1,-3.904928195E0,1.712833067E0,1.201937277E0,4.430227369E0
1.331754638E1,-1.919695424E0,1.057487662E0,1.835882458E0,2.859016453E0
1.332748838E1,-3.161943625E-1,3.965751225E-1,1.562317404E0,1.642585271E0
1.333743137E1,1.137684856E0,1.460342109E-2,1.016933713E0,1.526005985E0
1.334737337E1,2.548303120E0,5.413761556E-2,6.543718439E-1,2.631536088E0
1.335731638E1,3.507474236E0,5.078242475E-1,3.964704573E-1,3.566153363E0
1.336725838E1,3.906773869E0,1.037852127E0,-4.274408197E-1,4.064815464E0
1.337720037E1,4.159432642E0,1.526853603E0,-2.569493430E0,5.121958445E0
1.338714338E1,4.050721793E0,1.545015639E0,-5.769063522E0,7.216475199E0
1.339708538E1,3.393682742E0,9.484224719E-1,-7.422616348E0,8.216557745E0
1.340702838E1,3.012937494E0,-6.674011946E-3,-5.151960077E0,5.968293686E0
1.341697037E1,3.588367249E0,-1.275475954E0,-1.520857283E0,4.100759112E0
1.342691237E1,4.939825432E0,-2.419945042E0,-8.718257010E-2,5.501418917E0
1.343685538E1,6.199834331E0,-2.841101274E0,3.523312882E-1,6.828904709E0
1.344679738E1,6.996048517E0,-2.380506157E0,6.689287797E-1,7.420173188E0
1.345674037E1,7.474857126E0,-1.280257807E0,-1.043394703E-1,7.584420600E0
1.346668238E1,7.362401136E0,-4.641081244E-1,-2.144010258E0,7.682260528E0
1.347662438E1,5.737088023E0,-1.197766458E0,-5.476215667E0,8.021082315E0
1.348656738E1,3.140883343E0,-3.037557780E0,-8.222917737E0,9.311728173E0
1.349650937E1,1.792038720E0,-4.071416259E0,-6.188068564E0,7.621025238E0
1.350645238E1,2.281148953E0,-4.107300621E0,-1.257158090E0,4.863538362E0
1.351639438E1,2.153239503E0,-4.651709143E0,9.028083426E-1,5.204795982E0
1.352633638E1,2.098996784E0,-4.778418306E0,7.675166363E-1,5.275239406E0
1.353627937E1,3.111728834E0,-4.505843917E0,-2.613424730E-1,5.482133309E0
1.354622137E1,4.704670883E0,-4.728019400E0,-2.397603708E0,7.087778151E0
1.355616438E1,6.023561829E0,-5.300990401E0,-4.357662316E0,9.130882608E0
1.356610638E1,7.414242550E0,-5.804734461E0,-5.815422002E0,1.106729722E1
1.357604837E1,8.508860031E0,-5.498603486E0,-6.589695096E0,1.208550457E1
1.358599138E1,9.281350894E0,-4.140515730E0,-6.483234841E0,1.205486122E1
1.359593338E1,9.168464549E0,-2.247094331E0,-6.282222769E0,1.133915773E1
1.360587638E1,7.769239292E0,-6.335674506E-1,-6.344897320E0,1.005088100E1
1.361581837E1,6.154773933E0,-4.472944558E-2,-3.813354074E0,7.240504968E0
1.362576037E1,4.970431513E0,-1.552482533E-1,-2.075254018E0,5.388503566E0
1.363570338E1,2.303177169E0,-3.634880680E-1,-2.926314502E0,3.741666101E0
1.364564538E1,-1.668286347E0,-1.407228926E0,-2.372797188E0,3.223916730E0
1.365558837E1,-4.646207498E0,-3.585878674E0,1.013958065E0,5.955995377E0
1.366553038E1,-5.612731780E0,-6.308341697E0,5.946451088E0,1.032754635E1
1.367547338E1,-6.170246835E0,-9.392769588E0,9.067234043E0,1.443990304E1
1.368541538E1,-6.044174434E0,-1.175955993E1,8.617718815E0,1.578240704E1
1.369535737E1,-4.304524866E0,-1.230992560E1,4.488274788E0,1.379158487E1
1.370530038E1,-1.239667752E0,-1.051818435E1,-8.455727991E-1,1.062468689E1
1.371524238E1,4.481595513E-1,-7.654608722E0,-3.172038185E0,8.297933955E0
1.372518537E1,7.665249485E-1,-5.448180606E0,-7.899996190E-1,5.558266979E0
1.373512737E1,-4.096822411E-2,-4.095264713E0,2.718002182E0,4.915323725E0
1.374506937E1,-2.296425097E0,-3.489325356E0,4.204640390E0,5.926884550E0
1.375501238E1,-3.925829068E0,-2.832195965E0,4.972854599E0,6.939938812E0
1.376495438E1,-3.218718554E0,-1.337150046E0,5.520777297E0,6.528943356E0
1.377489737E1,-1.860855624E0,-7.582435369E-2,4.215529075E0,4.608602648E0
1.378483938E1,-1.125454820E0,1.570203690E0,4.280973743E0,4.696692919E0
1.379478138E1,-5.985823900E-1,2.645801933E0,2.899609684E0,3.970680680E0
1.380472438E1,1.809236696E-1,3.459399306E0,2.075562459E0,4.038333376E0
1.381466637E1,5.130920041E-1,4.466561737E0,2.568611962E0,5.177953705E0
1.382460938E1,-6.391378006E-1,5.351428483E0,3.729925124E0,6.554282979E0
1.383455138E1,-2.551871383E0,5.575254051E0,4.351818024E0,7.518897885E0
1.384449338E1,-4.788673153E0,6.011125386E0,5.148986768E0,9.250788275E0
1.385443637E1,-7.286825874E0,6.394669404E0,5.551906704E0,1.117198712E1
1.386437838E1,-9.262221143E0,6.596989498E0,6.258833907E0,1.298006213E1
1.387432138E1,-1.025195127E1,6.247083927E0,7.156134757E0,1.397636673E1
1.388426338E1,-9.669417733E0,5.548708861E0,7.841545376E0,1.362995390E1
1.389420537E1,-8.005343428E0,5.213365781E0,7.805756907E0,1.233671541E1
1.390414838E1,-6.437120190E0,5.456041018E0,7.188870978E0,1.108534013E1
1.391409038E1,-5.569278781E0,5.797176935E0,6.439832128E0,1.030027011E1
1.392403337E1,-5.465781895E0,6.063190164E0,6.070837737E0,1.017310756E1
1.393397537E1,-5.330954458E0,6.357864690E0,5.892756107E0,1.017674277E1
1.394391737E1,-5.142037936E0,6.291433303E0,5.749955406E0,9.954128506E0
1.395386038E1,-4.853474043E0,5.707065495E0,5.016782976E0,9.016369462E0
1.396380238E1,-4.199729606E0,4.905720377E0,2.997947572E0,7.119797105E0
1.397374537E1,-3.202706539E0,3.692171114E0,-1.558685260E0,5.130200430E0
1.398368738E1,-8.252453193E-1,1.431594273E0,-8.638746572E0,8.795364366E0
1.399362938E1,4.012297985E0,-2.253680634E0,-1.490680972E1,1.560098034E1
1.400357238E1,1.109272475E1,-7.412742155E0,-2.037135084E1,2.435137006E1
1.401351437E1,1.467197502E1,-1.455970497E1,-1.979487619E1,2.861973066E1
1.402345738E1,1.277063707E1,-2.002364265E1,-1.204706402E1,2.663019316E1
1.403339938E1,1.127984033E1,-1.838072240E1,-9.839881611E0,2.370462031E1
1.404334138E1,9.571631237E0,-9.607213883E0,-6.510033215E0,1.504311190E1
1.405328437E1,5.832478330E0,-2.590708297E-1,-2.269043317E0,6.263663364E0
1.406322638E1,1.973984336E0,2.471388845E0,4.757575321E-1,3.198550018E0
1.407316938E1,9.948464406E-1,3.218106936E0,5.054542540E0,6.074070462E0
1.408311138E1,2.225996115E0,4.907573944E0,8.590400038E0,1.014072549E1
1.409305337E1,1.455724271E0,4.662420073E0,9.676226231E0,1.083912580E1
1.410299638E1,-1.015877998E0,2.945217381E0,7.850279946E0,8.445898932E0
1.411293838E1,-2.998152517E0,8.333510220E-2,4.027386433E0,5.021524144E0
1.412288137E1,-2.539605094E0,-2.479895375E0,2.497096714E0,4.339927085E0
1.413282337E1,-7.974418089E-1,-5.174021037E0,2.898025088E0,5.983724303E0
1.414276537E1,-4.353269595E-1,-9.206389005E0,-1.341618196E0,9.313809503E0
1.415270838E1,-2.882478511E-1,-1.124087448E1,-5.956505960E0,1.272479113E1
1.416265038E1,-3.859067898E0,-9.100450321E0,-5.699060072E0,1.141007830E1
1.417259337E1,-9.556414443E0,-3.157830328E0,-5.017125038E0,1.124582114E1
1.418253538E1,-1.442021964E1,2.723212636E0,-2.283023132E0,1.485162672E1
1.419247738E1,-1.630633377E1,6.114147479E0,1.307752877E0,1.746394967E1
1.420242038E1,-1.478063266E1,7.121387093E0,5.288488469E0,1.723802095E1
1.421236217E1,-1.176750981E1,6.600887251E0,7.909916868E0,1.564010180E1
1.422230517E1,-6.825217434E0,5.411447228E0,1.115806270E1,1.415520107E1
1.423224717E1,-2.646943602E0,1.926441795E0,1.303574983E1,1.344054545E1
1.424218917E1,-1.016102824E-1,-2.633069621E0,1.216334058E1,1.244549052E1
1.425213217E1,2.222146600E0,-6.320261831E0,1.020293757E1,1.220588301E1
1.426207417E1,3.686018966E0,-8.132910377E0,6.668075852E0,1.114424527E1
1.427201717E1,5.254141340E0,-7.796149347E0,1.913938840E0,9.594222623E0
1.428195917E1,6.313810598E0,-4.977009045E0,-2.127994734E0,8.316440638E0
1.429190117E1,5.670773581E0,-1.381997021E0,-3.686480019E0,6.903457373E0
1.430184417E1,4.530006950E0,7.309370399E-1,-2.561106184E0,5.254949744E0
1.431178617E1,2.968582563E0,1.639725915E0,-2.881577857E-1,3.403559668E0
1.432172917E1,5.311793424E-1,2.123991145E0,1.369821364E0,2.582615041E0
1.433167117E1,-1.610462939E0,2.776115320E0,1.616016040E0,3.593315320E0
1.434161417E1,-3.150610771E0,3.442228957E0,8.597576326E-1,4.744941687E0
1.435155617E1,-5.100337933E0,3.816028590E0,-4.697150560E-1,6.387186663E0
1.436149817E1,-6.610595968E0,3.671194813E0,-1.633448929E0,7.736007097E0
1.437144117E1,-6.548010296E0,3.008141608E0,-1.319099107E0,7.325665650E0
1.438138317E1,-5.578702154E0,2.128250842E0,-1.448099501E-1,5.972632526E0
1.439132617E1,-3.504718151E0,1.103338603E0,7.654337849E-1,3.753171229E0
1.440126817E1,-9.395918606E-1,1.990058917E-1,9.178052813E-1,1.328458785E0
1.441121017E1,1.342529192E0,-3.088943696E-1,4.772263527E-1,1.457925017E0
1.442115317E1,2.978173750E0,-3.184007728E-1,-7.925900817E-4,2.995145834E0
1.443109517E1,4.122936076E0,-4.773316026E-2,-4.664943731E-1,4.149517724E0
1.444103817E1,4.742295670E0,4.785677040E-1,-9.575067061E-1,4.861606150E0
1.445098017E1,4.995082789E0,1.240058200E0,-1.595032137E0,5.388202291E0
1.446092217E1,4.834470885E0,2.043037030E0,-3.012667937E0,6.051634254E0
1.447086517E1,4.597628830E0,2.442985411E0,-4.967410841E0,7.195939066E0
1.448080717E1,3.978253741E0,2.201075574E0,-5.394654610E0,7.055036135E0
1.449075017E1,3.129826258E0,1.022016113E0,-2.716570784E0,4.268499287E0
1.450069217E1,3.146446092E0,-3.291637427E-1,3.979457098E-1,3.188547093E0
1.451063417E1,3.944106879E0,-1.370583841E0,1.217266338E0,4.349277696E0
1.452057717E1,4.837946470E0,-1.944761707E0,5.849776733E-1,5.246906042E0
1.453051917E1,5.971559617E0,-1.939188141E0,-4.375719979E-1,6.293762321E0
1.454046217E1,6.943232372E0,-2.012097073E0,-2.464446446E0,7.637441109E0
1.455040417E1,6.602208722E0,-2.453868833E0,-5.112851560E0,8.703555787E0
1.456034617E1,4.897903819E0,-3.093994521E0,-6.694288920E0,8.853008984E0
1.457028917E1,3.121275875E0,-3.470207884E0,-5.849501914E0,7.483406877E0
1.458023117E1,1.744577162E0,-3.963746799E0,-2.863997802E0,5.192044065E0
1.459017417E1,1.427019997E0,-5.137419806E0,-2.640064645E-1,5.338461177E0
1.460011617E1,2.400032203E0,-6.168600259E0,6.993047726E-1,6.655885433E0
1.461005817E1,4.183985100E0,-6.283930156E0,3.751982868E-2,7.549497815E0
1.462000117E1,6.303121887E0,-5.427180916E0,-1.556023607E0,8.461964765E0
1.462994317E1,7.114274540E0,-4.823077585E0,-3.505342634E0,9.282370743E0
1.463988617E1,7.301935664E0,-4.483897562E0,-4.953531305E0,9.897528690E0
1.464982817E1,8.132073056E0,-4.531306787E0,-5.724132348E0,1.092835964E1
1.465977117E1,8.958335499E0,-4.290130776E0,-5.921405125E0,1.156373796E1
1.466971317E1,9.526056869E0,-3.375892881E0,-4.992084922E0,1.127223687E1
1.467965517E1,8.813414013E0,-2.050886332E0,-4.851917222E0,1.026759475E1
1.468959817E1,6.895595691E0,-8.844217730E-1,-4.455483602E0,8.257286233E0
1.469954017E1,5.687530532E0,-1.859022814E-1,-2.177459255E0,6.092937881E0
1.470948217E1,3.815404400E0,-1.887013435E-2,-2.251094996E0,4.430022065E0
1.471942517E1,9.398956052E-3,-6.120339096E-1,-3.407214661E0,3.461760476E0
1.472936717E1,-3.733475845E0,-2.195941134E0,-1.509044738E0,4.586743439E0
1.473931017E1,-6.232039626E0,-4.629907799E0,3.301707501E0,8.436565448E0
1.474925217E1,-6.886725465E0,-7.532712402E0,7.454902918E0,1.263900001E1
1.475919517E1,-7.305322371E0,-1.037106607E1,9.307588520E0,1.573397440E1
1.476913717E1,-6.766033671E0,-1.187718252E1,7.234369333E0,1.546553510E1
1.477907917E1,-4.080506340E0,-1.089674362E1,2.230272915E0,1.184751750E1
1.478902217E1,-8.646527754E-1,-8.160109286E0,-1.313631960E0,8.310272974E0
1.479896417E1,3.820480075E-1,-5.332316859E0,-1.101478604E0,5.458279846E0
1.480890717E1,5.092717257E-1,-3.659939507E0,5.469754493E-1,3.735464768E0
1.481884917E1,-1.011002590E0,-2.877564511E0,2.954830788E0,4.246590249E0
1.482879117E1,-2.433436615E0,-2.485820358E0,5.173162665E0,6.233981759E0
1.483873417E1,-1.644861232E0,-1.293618695E0,7.035896122E0,7.340493992E0
1.484867617E1,1.160374099E0,-1.065929872E-1,5.014988465E0,5.148586158E0
1.485861917E1,9.377366853E-1,1.042654445E0,3.575400463E0,3.840568559E0
1.486856117E1,2.111169371E-1,1.736631820E0,2.303029965E0,2.892128534E0
1.487850317E1,7.028937936E-2,2.535312946E0,1.921063380E0,3.181703449E0
1.488844617E1,3.563322455E-2,3.252278649E0,1.847793090E0,3.740711889E0
1.489838817E1,-1.041113119E0,4.176628718E0,2.550946062E0,5.003545722E0
1.490833117E1,-3.001385442E0,5.016225151E0,3.825797241E0,6.986240325E0
1.491827317E1,-5.599718217E0,5.767424548E0,4.351043268E0,9.140656844E0
1.492821517E1,-7.919515657E0,6.526207198E0,4.182878222E0,1.108181298E1
1.493815817E1,-1.002414375E1,6.529015031E0,5.375532460E0,1.311517611E1
1.494810017E1,-1.097553251E1,4.981586831E0,6.826816063E0,1.385221783E1
1.495804317E1,-9.089144145E0,4.043772377E0,7.285412017E0,1.233052572E1
1.496798517E1,-6.114170283E0,4.820570884E0,7.199882455E0,1.060468242E1
1.497792717E1,-5.060296201E0,5.531755444E0,7.176957861E0,1.037861455E1
1.498787017E1,-5.743332850E0,5.713962870E0,6.492203300E0,1.038190482E1
1.499781217E1,-6.384535010E0,6.039132965E0,5.700296758E0,1.047505596E1
1.500775517E1,-6.805985942E0,6.367573991E0,5.422582666E0,1.078294236E1
1.501769717E1,-6.772657397E0,6.371241365E0,5.173439823E0,1.064077461E1
1.502763917E1,-6.399839512E0,6.040603539E0,4.902432780E0,1.007376216E1
1.503758217E1,-6.060282928E0,5.393923123E0,4.267496789E0,9.166949584E0
1.504752417E1,-5.579866920E0,4.469886464E0,2.102194480E0,7.452115235E0
1.505746717E1,-4.693517612E0,3.006290379E0,-2.510273122E0,6.112966593E0
1.506740917E1,-2.324102746E0,7.282765567E-1,-9.863767487E0,1.016000735E1
1.507735117E1,2.566411070E0,-2.396981272E0,-1.503457840E1,1.543925298E1
1.508729417E1,9.944074316E0,-6.798500921E0,-1.829438008E1,2.190407659E1
1.509723617E1,1.511751765E1,-1.337783767E1,-1.846437501E1,2.735761366E1
1.510717917E1,1.479715806E1,-1.987085257E1,-1.113989073E1,2.716438539E1
1.511712117E1,1.254434749E1,-1.947719228E1,-8.231796734E0,2.458625939E1
1.512706417E1,7.625123552E0,-9.017862493E0,-6.525373385E0,1.349239975E1
1.513700617E1,3.273863353E0,2.129056588E0,-2.339853098E0,4.552579020E0
1.514694817E1,1.972932130E0,2.277229126E0,5.919861460E-1,3.070615782E0
1.515689117E1,2.608848115E0,2.386718239E0,3.813428041E0,5.200456313E0
1.516683317E1,3.491034497E0,3.616590005E0,7.693994397E0,9.190462170E0
1.517677617E1,1.176493118E0,3.155679722E0,8.209194322E0,8.873179925E0
1.518671817E1,-2.256274752E0,1.329024171E0,5.168896537E0,5.794356945E0
1.519666017E1,-3.353745089E0,-7.878900898E-1,2.549551208E0,4.285859107E0
1.520660317E1,-1.834602795E0,-2.288261068E0,3.752031984E0,4.762315628E0
1.521654563E1,-4.654866055E-1,-4.254038252E0,3.414542684E0,5.474725652E0
1.522648862E1,-2.100524515E-2,-7.641106916E0,-2.393966740E0,8.007373657E0
1.523643062E1,-5.524572140E-1,-9.913091090E0,-6.823087878E0,1.204695447E1
1.524637262E1,-4.637079409E0,-8.482856879E0,-6.031717526E0,1.139486650E1
1.525631563E1,-1.020703764E1,-2.440243651E0,-3.442886769E0,1.104499324E1
1.526625763E1,-1.461662878E1,2.668720095E0,-9.485821009E-1,1.488850939E1
1.527620062E1,-1.592359141E1,4.627042079E0,2.592260149E0,1.678362578E1
1.528614263E1,-1.316636961E1,5.257281294E0,5.978099728E0,1.538603171E1
1.529608463E1,-9.347203406E0,5.473851637E0,8.619635532E0,1.384309864E1
1.530602763E1,-5.378311057E0,4.546711276E0,1.117598208E1,1.320989738E1
1.531596962E1,-2.012135957E0,1.858201280E0,1.219396946E1,1.249777958E1
1.532591263E1,-8.147276402E-2,-1.802339906E0,1.165634254E1,1.179514258E1
1.533585463E1,7.820807348E-1,-5.318968250E0,9.466480758E0,1.088656656E1
1.534579663E1,1.387953433E0,-7.269473677E0,6.413047203E0,9.792795142E0
1.535573962E1,2.517404094E0,-7.570867823E0,2.875077106E0,8.480650407E0
1.536568163E1,3.726338442E0,-6.129030982E0,-2.683543810E-1,7.177926792E0
1.537562463E1,4.058155358E0,-3.429585523E0,-2.074938269E0,5.704038095E0
1.538556663E1,3.363174894E0,-1.177304127E0,-2.218874499E0,4.197665353E0
1.539550862E1,2.226326629E0,4.597156960E-1,-1.066927992E0,2.511215665E0
1.540545163E1,6.071178630E-1,1.945080380E0,-5.197297633E-2,2.038291190E0
1.541539363E1,-1.406184905E0,3.145971590E0,-6.267338097E-1,3.502468915E0
1.542533662E1,-3.260540764E0,3.847445680E0,-9.776100913E-1,5.137089237E0
1.543527862E1,-4.957912624E0,4.207973303E0,-9.129159126E-1,6.566685036E0
1.544522163E1,-6.219262290E0,3.829613426E0,-1.008223116E0,7.373037114E0
1.545516363E1,-6.371329073E0,2.960262267E0,-2.628628953E-1,7.030368678E0
1.546510563E1,-5.543772057E0,2.218934725E0,5.257692061E-1,5.994456872E0
1.547504862E1,-3.444556734E0,1.260632797E0,1.189523785E0,3.856051475E0
1.548499063E1,-1.100689084E0,2.913135463E-1,1.363938041E0,1.776712420E0
1.549493363E1,8.145231338E-1,-2.805651945E-1,8.708812295E-1,1.224989339E0
1.550487563E1,2.125348284E0,-3.713098884E-1,5.875988339E-1,2.236123599E0
1.551481762E1,3.521418384E0,2.298710042E-1,4.348966044E-1,3.555610098E0
1.552476063E1,4.435237618E0,1.106103752E0,-1.447165409E-1,4.573373057E0
1.553470263E1,5.332927308E0,2.105398754E0,-1.400877095E0,5.902141495E0
1.554464562E1,5.915690056E0,2.807662802E0,-4.074296890E0,7.712214623E0
1.555458762E1,5.621796134E0,2.640583878E0,-7.036327647E0,9.385477172E0
1.556452963E1,5.002532727E0,1.842696218E0,-6.948745712E0,8.758192165E0
1.557447263E1,4.754247086E0,3.898058009E-1,-3.262810361E0,5.779337797E0
1.558441463E1,5.208558201E0,-1.154622778E0,-3.357985783E-1,5.345558247E0
1.559435762E1,5.972947161E0,-2.042496162E0,6.645632485E-1,6.347403617E0
1.560429963E1,6.818339939E0,-2.459512566E0,4.834729332E-1,7.264482615E0
1.561424163E1,7.558621999E0,-2.096425617E0,-3.438475630E-1,7.851496548E0
1.562418462E1,8.063467090E0,-1.167574360E0,-1.788358921E0,8.341520187E0
1.563412662E1,7.691216969E0,-7.873123848E-1,-3.505756617E0,8.489111185E0
1.564406963E1,5.605878843E0,-2.014246509E0,-5.403388596E0,8.042367495E0
1.565401163E1,2.989110675E0,-3.888128268E0,-6.362279338E0,8.033114117E0
1.566395462E1,1.828369955E0,-4.732787805E0,-4.546631169E0,6.812787395E0
1.567389662E1,2.150946517E0,-4.561188982E0,-1.064467191E0,5.154037859E0
1.568383863E1,1.850080959E0,-4.624981520E0,6.201574463E-1,5.019745898E0
1.569378163E1,8.575244348E-1,-4.697848937E0,3.275931805E-2,4.775584358E0
1.570372363E1,4.760756207E-1,-4.649586019E0,-2.444838978E0,5.274707174E0
1.571366663E1,2.237165759E0,-4.441127518E0,-5.514390968E0,7.425431436E0
1.572360863E1,4.958784444E0,-4.688637233E0,-7.066465366E0,9.823838101E0
1.573355063E1,7.119849275E0,-4.894334094E0,-6.726714070E0,1.094967772E1
1.574349362E1,8.617889553E0,-4.614253049E0,-5.668501353E0,1.130005571E1
1.575343562E1,9.112821860E0,-3.470492644E0,-4.704554524E0,1.082684971E1
1.576337863E1,8.622850916E0,-1.604097075E0,-4.878003405E0,1.003601527E1
1.577332063E1,7.158873008E0,4.284804547E-1,-5.499509220E0,9.037569358E0
1.578326263E1,5.982116765E0,1.590432132E0,-3.924142438E0,7.328989646E0
1.579320562E1,5.370331362E0,1.302561427E0,-2.864624623E0,6.224403541E0
1.580314763E1,2.921053470E0,-1.354741395E-1,-2.623943287E0,3.928865611E0
1.581309063E1,-2.986598601E-1,-2.089437609E0,-1.259876752E0,2.458096147E0
1.582303262E1,-3.006842356E0,-4.454428765E0,1.388046550E0,5.550649494E0
1.583297462E1,-4.837176684E0,-7.256756567E0,5.188404018E0,1.014782392E1
1.584291763E1,-5.749766541E0,-1.061610534E1,8.260217711E0,1.462848948E1
1.585285963E1,-5.294495898E0,-1.330132569E1,8.316500670E0,1.655660398E1
1.586280262E1,-3.797692014E0,-1.396011978E1,5.034511149E0,1.531841087E1
1.587274462E1,-1.882005734E0,-1.159292364E1,2.687158120E-1,1.174776712E1
1.588268763E1,-6.274737749E-1,-7.855490985E0,-2.336507614E0,8.219594259E0
1.589262963E1,2.716901444E-1,-5.097890874E0,-6.963004732E-1,5.152391798E0
1.590257163E1,-3.807896867E-2,-3.841310781E0,2.498214701E0,4.582378773E0
1.591251463E1,-1.914857145E0,-3.537432153E0,4.933409282E0,6.365424673E0
1.592245663E1,-1.628979902E0,-2.489145670E0,5.842829071E0,6.556529054E0
1.593239963E1,1.191490642E0,-8.178401130E-1,3.850635921E0,4.112895500E0
1.594234162E1,3.946049032E-1,9.879397094E-2,2.952663810E0,2.980553112E0
1.595228362E1,-8.072931978E-1,1.267213254E0,2.610930308E0,3.012392540E0
1.596222663E1,-1.269275275E0,2.171641275E0,2.279853941E0,3.394822461E0
1.597216863E1,-1.605439889E0,2.921383545E0,2.215914784E0,4.002773712E0
1.598211162E1,-1.868678614E0,3.957330065E0,2.516748913E0,5.048410254E0
1.599205362E1,-2.384705043E0,5.221460667E0,3.493098564E0,6.719539211E0
1.600199563E1,-4.104198089E0,5.759912630E0,4.283460564E0,8.268559116E0
1.601193863E1,-5.787040787E0,6.321013198E0,3.943918014E0,9.433956657E0
1.602188062E1,-7.529877087E0,6.913381752E0,4.460390293E0,1.115298067E1
1.603182363E1,-9.501443599E0,6.237539517E0,6.021577284E0,1.286249286E1
1.604176563E1,-9.714786279E0,4.799740178E0,7.252110955E0,1.303869976E1
1.605170763E1,-7.489052997E0,4.871670286E0,7.722794273E0,1.180934535E1
1.606165062E1,-5.427976722E0,5.631263945E0,7.532469742E0,1.085873682E1
1.607159262E1,-5.139504923E0,5.847925504E0,7.235606604E0,1.062858158E1
1.608153563E1,-5.843772812E0,6.063567309E0,6.742644224E0,1.078794607E1
1.609147763E1,-6.234594859E0,6.480139325E0,6.253152752E0,1.095282147E1
1.610142062E1,-6.120315122E0,6.573642735E0,5.940308003E0,1.076839334E1
1.611136263E1,-5.756904822E0,6.194723280E0,5.669178461E0,1.018116565E1
1.612130463E1,-5.452912173E0,5.557820578E0,4.878310092E0,9.188118964E0
1.613124763E1,-5.197978249E0,4.697019802E0,2.789112803E0,7.540565172E0
1.614118962E1,-4.627570667E0,3.204045551E0,-2.508293547E0,6.162130694E0
1.615113263E1,-2.824790759E0,7.752846622E-1,-9.683407781E0,1.011676309E1
1.616107463E1,1.769947500E0,-2.385156448E0,-1.543348949E1,1.571668805E1
1.617101663E1,9.756900265E0,-6.204378787E0,-1.935212034E1,2.254320254E1
1.618095962E1,1.448695157E1,-1.190745473E1,-1.632177042E1,2.486080115E1
1.619090162E1,1.197632323E1,-1.827017261E1,-9.348687429E0,2.376193346E1
1.620084463E1,1.051129166E1,-1.831502543E1,-7.670198568E0,2.246685013E1
1.621078588E1,7.947711516E0,-9.448535069E0,-5.469715902E0,1.350402626E1
1.622072788E1,2.691181881E0,3.237667626E0,-3.664019987E0,5.581217971E0
1.623067087E1,9.811627865E-2,2.971224042E0,1.749039904E0,3.449194065E0
1.624061288E1,1.431169766E0,2.684591192E0,4.370761248E0,5.325300992E0
1.625055588E1,2.970827016E0,4.769365647E0,6.907145112E0,8.904005583E0
1.626049788E1,2.382952340E0,3.663893394E0,9.018285831E0,1.002157952E1
1.627043987E1,7.495253384E-3,1.378481090E0,8.176112530E0,8.291506642E0
1.628038288E1,-2.196999188E0,-1.382699856E0,5.832947277E0,6.384507675E0
1.629032488E1,-2.417103295E0,-4.072385142E0,4.818987458E0,6.756430212E0
1.630026787E1,-8.283852741E-1,-8.158156316E0,8.070831366E-1,8.239728140E0
1.631020987E1,1.478465846E0,-1.310506039E1,-7.403276097E0,1.512405256E1
1.632015288E1,-3.369911179E-1,-1.527634907E1,-9.341744446E0,1.790945542E1
1.633009488E1,-5.008687506E0,-9.802839500E0,-5.811395609E0,1.244808948E1
1.634003688E1,-8.587163604E0,-5.979491365E-1,-3.765507478E0,9.395529176E0
1.634997987E1,-1.172381590E1,5.286917907E0,9.888508518E-1,1.289872809E1
1.635992188E1,-1.241222614E1,7.237181259E0,5.022364143E0,1.522052207E1
1.636986488E1,-1.094888324E1,7.814737646E0,6.158659408E0,1.479450082E1
1.637980688E1,-9.488410156E0,7.185778386E0,7.842388544E0,1.425371518E1
1.638974887E1,-6.647881908E0,5.784770313E0,1.088628997E1,1.400604194E1
1.639969188E1,-3.298976852E0,2.955456440E0,1.245090781E1,1.321525923E1
1.640963388E1,-1.210294264E0,-9.954311621E-1,1.106095916E1,1.117141500E1
1.641957687E1,6.529771368E-1,-4.817228615E0,8.067692288E0,9.419115114E0
1.642951887E1,1.672574403E0,-6.988106244E0,5.438820384E0,9.011764598E0
1.643946088E1,2.759415672E0,-7.081847636E0,2.578169528E0,8.025826992E0
1.644940388E1,4.284585276E0,-5.452819787E0,-5.752069394E-1,6.958575835E0
1.645934588E1,5.305426099E0,-2.679976569E0,-3.337830430E0,6.816959182E0
1.646928887E1,4.345360066E0,2.677206159E-2,-4.202692682E0,6.045287142E0
1.647923088E1,2.985632751E0,2.085527576E0,-3.077989522E0,4.768379986E0
1.648917388E1,1.285999627E0,3.131124340E0,-1.247817455E0,3.607600737E0
1.649911587E1,-1.044845616E0,3.773922206E0,9.524876755E-2,3.917047805E0
1.650905787E1,-3.302947403E0,4.164363014E0,1.103912288E0,5.428628114E0
1.651900088E1,-5.770382069E0,4.054062307E0,1.241036439E-1,7.053235579E0
1.652894288E1,-7.311183620E0,3.639687091E0,-1.152123093E0,8.247915838E0
1.653888587E1,-6.801516915E0,2.890717238E0,-4.131380186E-1,7.401862030E0
1.654882787E1,-4.393545801E0,1.857482073E0,1.075096552E0,4.889715426E0
