"Time (s)","Linear Acceleration x (m/s^2)","Linear Acceleration y (m/s^2)","Linear Acceleration z (m/s^2)","Absolute acceleration (m/s^2)"
4.160374985E-3,2.068816819E0,-2.214672689E0,-1.341250699E0,3.314171327E0
1.410337500E-2,4.963354043E0,-3.909884588E0,-1.518124294E-1,6.320215808E0
2.404737499E-2,8.216672326E0,-4.610776294E0,1.363664830E0,9.520112600E0
3.399037500E-2,9.710696152E0,-3.936645539E0,1.323770740E0,1.056158922E1
4.393437499E-2,9.020225937E0,-2.653410330E0,4.820915285E-1,9.414747717E0
5.387737500E-2,7.205170677E0,-1.846533746E0,4.295911333E-1,7.450417431E0
6.382137499E-2,2.246930463E0,-6.437313148E0,1.602221289E0,7.003913915E0
7.376437500E-2,-5.319477543E0,-2.335791681E1,5.511144594E0,2.458173781E1
8.370837499E-2,-5.536631438E0,-2.857318644E1,5.405652637E0,2.960240449E1
9.365237498E-2,-1.829342932E0,-1.535661497E1,-4.250551558E0,1.603868160E1
1.035953750E-1,-2.826217187E0,-4.668615198E0,-6.656627589E0,8.607796600E0
1.135393750E-1,-6.169313035E0,3.653480673E-1,-5.584587961E0,8.329557325E0
1.234823750E-1,-1.047189078E1,1.678176035E0,-6.811020395E0,1.260423620E1
1.334263750E-1,-8.313818552E0,2.058922160E0,-7.773789010E0,1.156678585E1
1.433693750E-1,-4.960798810E0,1.819313788E0,-8.428216987E0,9.947576040E0
1.533133750E-1,-1.154955484E0,2.103977296E0,-8.801165265E0,9.122562834E0
1.632563750E-1,-1.149685389E-1,3.130147855E0,-7.864846530E0,8.465627815E0
1.732003750E-1,1.118025640E0,4.001632079E0,-5.709754044E0,7.061468110E0
1.831433750E-1,2.115444270E0,4.193695571E0,-3.470239459E0,5.839927132E0
1.930873750E-1,2.727238152E0,4.274357911E0,-1.583701987E0,5.311880597E0
2.030303750E-1,3.795239984E0,4.214728591E0,2.055676371E-1,5.675389122E0
2.129743750E-1,4.560437030E0,3.986729865E0,9.021940926E-1,6.124177913E0
2.229173750E-1,4.660166263E0,3.466987823E0,2.386131763E-1,5.813268479E0
2.328613750E-1,5.292851077E0,2.726080695E0,-1.121747392E0,6.058391345E0
2.428043750E-1,5.816304932E0,1.965210589E0,-2.157685433E0,6.507462036E0
2.527483750E-1,6.210374522E0,1.698989199E0,-2.769536617E0,7.008969188E0
2.626913750E-1,6.498049346E0,1.732455153E0,-3.048107327E0,7.383563126E0
2.726353750E-1,6.641571593E0,2.001444615E0,-2.885401534E0,7.512775505E0
2.825783750E-1,6.677974019E0,2.335959145E0,-2.609380211E0,7.540617164E0
2.925223750E-1,6.346366725E0,2.577446228E0,-2.332458124E0,7.236018281E0
3.024653750E-1,5.566619468E0,2.936285759E0,-2.104860225E0,6.636223544E0
3.124093750E-1,4.665911445E0,3.086020673E0,-1.900962553E0,5.908291787E0
3.223523750E-1,3.908990841E0,2.920785375E0,-1.671893202E0,5.158141475E0
3.322963750E-1,2.608210183E0,2.612944089E0,-1.398614223E0,3.947956296E0
3.422403750E-1,1.176035574E0,2.017668300E0,-8.208447048E-1,2.475445630E0
3.521833750E-1,-1.053491382E0,1.098586571E0,4.241704720E-1,1.580081370E0
3.621273750E-1,-3.822993501E0,2.824696326E-1,2.578795180E0,4.620092313E0
3.720703750E-1,-6.317611873E0,-4.853832185E-1,4.828420478E0,7.966270204E0
3.820143750E-1,-8.676241842E0,-1.692080129E0,6.521179177E0,1.098481158E1
3.919573750E-1,-1.222558770E1,-3.294606058E0,7.854401064E0,1.490003489E1
4.019013750E-1,-1.545258532E1,-5.166314406E0,8.125490845E0,1.820705356E1
4.118443750E-1,-1.754031379E1,-6.188268539E0,7.957481044E0,2.023063963E1
4.217883750E-1,-1.553550235E1,-4.847131861E0,7.255682434E0,1.781828971E1
4.317313750E-1,-9.592580642E0,-2.345443329E0,5.920268426E0,1.151383021E1
4.416753750E-1,-4.123156516E0,-6.286592978E-1,3.676460523E0,5.559855587E0
4.516183750E-1,-2.754342628E-1,1.397209137E0,-1.524755622E0,2.086369361E0
4.615623750E-1,2.609467919E0,3.235921648E0,-8.590605860E0,9.543532930E0
4.715053750E-1,5.688438604E0,1.801984395E0,-8.657873983E0,1.051495428E1
4.814493750E-1,7.215920198E0,-1.527532464E0,-6.788775832E0,1.002448687E1
4.913923750E-1,7.719528018E0,-4.146990352E0,-3.744298457E0,9.529344822E0
5.013363750E-1,5.781302329E0,-6.193640960E0,-2.090560859E0,8.726688357E0
5.112793750E-1,2.927708771E0,-7.767403851E0,-2.503036608E0,8.670019232E0
5.212233750E-1,5.007482395E-1,-8.832398168E0,-3.370015259E0,9.466731698E0
5.311663750E-1,-2.362162857E0,-8.029705267E0,-2.442679017E0,8.719097477E0
5.411103750E-1,-3.409557055E0,-4.116139857E0,9.655127138E-2,5.345746794E0
5.510533750E-1,-3.014947182E0,5.624553680E-2,2.059922327E0,3.651896776E0
5.609973750E-1,-3.180026359E0,1.483836806E0,1.279619876E0,3.735206332E0
5.709403750E-1,-1.252710697E0,1.640137559E0,-1.810091267E0,2.745134914E0
5.808843750E-1,1.290675792E0,8.876985526E-1,-2.950403569E0,3.340469120E0
5.908273750E-1,3.445198758E0,-3.702585590E-1,-2.397613941E0,4.213672803E0
6.007713750E-1,4.538605573E0,-1.074566794E0,-1.995543605E0,5.073049243E0
6.107143750E-1,5.385456355E0,-8.673905879E-1,-1.106444060E0,5.565943320E0
6.206583750E-1,5.809394692E0,-7.940150481E-1,-1.344673659E0,6.015619156E0
6.306013750E-1,5.057686003E0,-1.559995036E0,-2.083170564E0,5.688002445E0
6.405453750E-1,4.423520967E0,-2.058791767E0,-1.853030003E0,5.219183986E0
6.504883750E-1,3.335489790E0,-2.141771359E0,-1.221760508E0,4.147936286E0
6.604323750E-1,2.754781753E0,-2.213628377E0,-7.595071203E-1,3.614667919E0
6.703763750E-1,1.526726133E0,-2.511743989E0,-3.229794350E-1,2.957036738E0
6.803193750E-1,9.451091471E-1,-2.273491001E0,3.539918974E-1,2.487428973E0
6.902633750E-1,1.171010477E0,-1.917237693E0,6.747064134E-1,2.345697050E0
7.002063750E-1,1.664421045E0,-1.528228868E0,7.964580148E-1,2.395856059E0
7.101503750E-1,2.848028471E0,-1.376221141E0,-1.002510971E-1,3.164696049E0
7.200933750E-1,4.731848742E0,-1.107058602E0,-2.615601649E0,5.518817196E0
7.300373750E-1,5.500838292E0,-1.150502830E0,-4.973298987E0,7.504437453E0
7.399803750E-1,5.989313518E0,-6.827694315E-1,-4.279416922E0,7.392662559E0
7.499243750E-1,5.425099892E0,2.658530152E-1,-1.784443040E0,5.717221670E0
7.598673750E-1,4.774650360E0,9.815726763E-1,1.388817798E0,5.068489505E0
7.698113750E-1,3.446137236E0,1.593803637E0,3.402178746E0,5.098126333E0
7.797540833E-1,1.211604333E0,1.869417409E0,3.929088306E0,4.516684782E0
7.896980833E-1,-8.972377002E-1,1.806559841E0,2.636817686E0,3.319864675E0
7.996410833E-1,-2.011457387E0,2.097441278E0,8.847536024E-1,3.037763926E0
8.095850833E-1,-2.648824943E0,2.484241610E0,7.023543879E-2,3.632170560E0
8.195280833E-1,-2.674334591E0,2.604162156E0,-1.168367243E-1,3.734618703E0
8.294720833E-1,-2.525362739E0,2.509404518E0,-2.905817673E-1,3.571975051E0
8.394150833E-1,-2.228650166E0,2.304706362E0,-3.136157039E-1,3.221320814E0
8.493590833E-1,-1.912790593E0,1.922396107E0,-7.439865634E-1,2.812097198E0
8.593020833E-1,-2.086175448E0,1.759194471E0,-8.034694111E-1,2.844724289E0
8.692460833E-1,-3.062329802E0,1.746864447E0,-1.137249823E-1,3.527369074E0
8.791890833E-1,-4.217615361E0,1.921076975E0,8.852947623E-1,4.718322042E0
8.891330833E-1,-5.170117435E0,1.906891630E0,1.810025486E0,5.800219155E0
8.990760833E-1,-5.504874040E0,1.606551737E0,2.418720489E0,6.223733243E0
9.090200833E-1,-5.064400361E0,1.591471767E0,2.499192648E0,5.867443847E0
9.189630833E-1,-3.967258637E0,1.606014377E0,2.932753456E0,5.188397258E0
9.289070833E-1,-2.883309401E0,1.184430129E0,3.320630261E0,4.554441037E0
9.388500833E-1,-1.458194281E0,9.812832391E-1,3.500115808E0,3.916638613E0
9.487940833E-1,-1.249292707E-1,1.181646270E0,3.666539844E0,3.854271612E0
9.587370833E-1,6.469274613E-1,1.322875239E0,4.089997541E0,4.347021270E0
9.686810833E-1,1.001601583E0,1.306057477E0,4.743744317E0,5.021165404E0
9.786240833E-1,2.036519138E0,6.335259354E-1,5.234009961E0,5.651869211E0
9.885680833E-1,2.769912886E0,-8.320365679E-1,4.980964102E0,5.759748747E0
9.985120833E-1,1.820063693E0,-2.035621006E0,3.994940525E0,4.839001398E0
1.008455083E0,3.224027534E-1,-2.496534796E0,3.628817702E0,4.416440585E0
1.018399083E0,-1.724915023E0,-2.227714319E0,3.805267959E0,4.734776359E0
1.028342083E0,-3.470903118E0,-1.420753536E0,4.213565580E0,5.640908079E0
1.038286083E0,-4.369690038E0,-5.883374834E-1,5.043419382E0,6.698985825E0
1.048229083E0,-4.591514104E0,-5.566549301E-3,5.905700088E0,7.480596653E0
1.058173083E0,-4.384256622E0,5.362551641E-1,7.034490452E0,8.306222465E0
1.068116083E0,-4.158008845E0,1.043119884E0,7.092903551E0,8.287726916E0
1.078060083E0,-4.143675273E0,1.864727942E0,6.657632141E0,8.060478943E0
1.088003083E0,-4.602560956E0,2.777359022E0,5.841100634E0,7.938245846E0
1.097947083E0,-5.191062747E0,3.525388643E0,4.435829941E0,7.684535431E0
1.107890083E0,-5.741758195E0,4.166060461E0,2.600424616E0,7.555531425E0
1.117834083E0,-5.840232323E0,4.681857972E0,4.699277119E-1,7.499929313E0
1.127777083E0,-4.898932929E0,4.786460567E0,-1.196954280E0,6.952873373E0
1.137721083E0,-3.686556618E0,4.147642901E0,-2.099122937E0,5.932955287E0
1.147664083E0,-2.427958359E0,2.404996051E0,-2.191560400E0,4.059793687E0
1.157608083E0,-3.477076024E-2,-1.430396179E0,-1.390770768E0,1.995366022E0
1.167551083E0,3.705799804E0,-7.948594446E0,-6.327584884E-1,8.792808946E0
1.177495083E0,7.588219435E0,-1.487047279E1,1.193578098E0,1.673728364E1
1.187438083E0,9.614478464E0,-1.822144893E1,3.148389122E0,2.084158706E1
1.197382083E0,7.874189796E0,-1.549422919E1,2.930885271E0,1.762566571E1
1.207325083E0,4.128675995E0,-1.093914412E1,2.485427133E0,1.195358472E1
1.217269083E0,2.319881641E0,-8.189467571E0,2.430272394E0,8.851861603E0
1.227212083E0,5.896762034E-1,-6.221422251E0,1.163433070E0,6.356680688E0
1.237156083E0,3.180894086E-1,-3.349747640E0,-1.196737933E0,3.571298336E0
1.247099083E0,-3.187744099E-1,-1.852252908E0,-3.963952914E0,4.386955739E0
1.257043083E0,-1.265844128E0,-1.750640579E0,-5.659006644E0,6.057347604E0
1.266986083E0,-5.329714263E0,-1.542001399E0,-6.698111245E0,8.697604078E0
1.276930083E0,-5.632235168E0,-6.486421573E-1,-7.432285888E0,9.347817026E0
1.286873083E0,-4.000477546E0,6.271992481E-1,-7.419203913E0,8.452324307E0
1.296817083E0,-4.029000264E0,1.308378822E0,-7.708569167E0,8.795836337E0
1.306760083E0,-2.434441752E0,1.787283325E0,-6.570139668E0,7.231018157E0
1.316704083E0,-1.101466910E0,1.876804197E0,-4.992772554E0,5.446411766E0
1.326647083E0,5.146198815E-1,2.200069268E0,-3.773951442E0,4.398618862E0
1.336591083E0,2.090713472E0,2.630578122E0,-2.306136591E0,4.075449675E0
1.346534083E0,2.970363624E0,2.926548976E0,-9.891971532E-1,4.285587472E0
1.356478083E0,3.318177938E0,3.011041242E0,-6.472163138E-1,4.527202574E0
1.366422083E0,3.571187837E0,2.722408644E0,-6.313174421E-1,4.534694378E0
1.376365083E0,4.059156986E0,2.275960865E0,-1.069464514E0,4.774987712E0
1.386309083E0,4.819880620E0,1.787411964E0,-2.303152757E0,5.632992397E0
1.396252083E0,5.740960050E0,1.566076725E0,-3.125070718E0,6.721405031E0
1.406196083E0,6.464624323E0,1.740628392E0,-3.524978169E0,7.566150006E0
1.416139083E0,6.554930475E0,1.870987387E0,-4.041042312E0,7.924501897E0
1.426083083E0,6.388690626E0,1.942193025E0,-4.015233287E0,7.791635259E0
1.436026083E0,6.244680721E0,1.966944289E0,-3.286242785E0,7.325592044E0
1.445970083E0,6.037189350E0,2.053219956E0,-2.345979226E0,6.794629200E0
1.455913083E0,5.740801590E0,2.371632423E0,-1.907660539E0,6.497738990E0
1.465857083E0,5.184422064E0,2.767350343E0,-1.980016909E0,6.201364932E0
1.475800083E0,4.573449424E0,2.756340621E0,-2.535556482E0,5.911251976E0
1.485744083E0,3.332198977E0,2.525671472E0,-2.742429803E0,5.000348751E0
1.495687083E0,9.436569911E-1,2.066114820E0,-1.330714601E0,2.632512168E0
1.505631083E0,-1.454778191E0,1.719907613E0,1.867765571E0,2.926262123E0
1.515574083E0,-3.697173115E0,1.281175820E0,5.029127617E0,6.372018920E0
1.525518083E0,-5.949417965E0,4.607605934E-1,6.876944243E0,9.104956703E0
1.535461083E0,-8.427026494E0,-6.788535511E-1,7.525596925E0,1.131857883E1
1.545405083E0,-1.185177520E1,-2.297863950E0,7.912543437E0,1.443444137E1
1.555348083E0,-1.553018372E1,-4.307703997E0,8.044361898E0,1.801262553E1
1.565292083E0,-1.738943224E1,-5.986202214E0,7.651329018E0,1.991908146E1
1.575235083E0,-1.491352700E1,-5.365073546E0,7.155996763E0,1.738981287E1
1.585179083E0,-8.625644131E0,-2.762086680E0,6.250575299E0,1.100456955E1
1.595122083E0,-2.744003288E0,-1.120004922E-1,3.531608326E0,4.473740664E0
1.605066083E0,2.522719797E-1,2.134205647E0,-5.243011165E0,5.666360469E0
1.615009083E0,3.135979868E0,2.045351942E0,-1.095693252E1,1.157895524E1
1.624953083E0,4.999164146E0,-1.365390344E0,-8.837940159E0,1.024524862E1
1.634896083E0,6.550275507E0,-4.568169388E0,-5.055118491E0,9.451375759E0
1.644840083E0,5.547207881E0,-7.260612806E0,-1.609462773E0,9.277843716E0
1.654783083E0,2.680453995E0,-8.930378791E0,-3.428786793E-1,9.330276778E0
1.664727083E0,8.928601822E-1,-9.089269275E0,-1.700847445E0,9.290042911E0
1.674670083E0,-4.085581139E-1,-7.224975781E0,-2.752900119E0,7.742457868E0
1.684614083E0,-1.431907099E0,-2.837950210E0,-1.372056462E0,3.462204250E0
1.694557083E0,-1.655661624E0,1.183921421E0,6.796408787E-1,2.145879090E0
1.704501083E0,-4.357081980E-1,3.004519842E0,1.223789492E0,3.273322752E0
1.714444083E0,1.511269019E0,3.169918862E0,2.289722872E-1,3.519197060E0
1.724388083E0,2.794336121E0,2.193740242E0,-1.458217523E0,3.840209493E0
1.734331083E0,3.106464878E0,5.027032560E-1,-2.874930341E0,4.262400622E0
1.744275083E0,3.532741224E0,-9.371122026E-1,-3.362641920E0,4.966467610E0
1.754219083E0,3.886367963E0,-2.258318646E0,-3.052270544E0,5.433250825E0
1.764162083E0,3.365370816E0,-3.071541798E0,-2.111946466E0,5.021992395E0
1.774106083E0,2.090769020E0,-3.573404809E0,-1.690728253E0,4.472035224E0
1.784049458E0,2.341385069E0,-3.486729777E0,-1.407364289E0,4.429451751E0
1.793993458E0,3.486935599E0,-2.902454354E0,-1.141703647E0,4.678295455E0
1.803936458E0,3.514089191E0,-2.154681426E0,-1.073463424E0,4.259553805E0
1.813880458E0,2.912686689E0,-1.713261083E0,-7.621927464E-1,3.464093687E0
1.823823458E0,4.517362931E-1,-1.455514063E0,1.865174962E0,2.408622948E0
1.833767458E0,1.380815591E0,-6.909262973E-1,3.805845372E0,4.107126713E0
1.843710458E0,2.417241874E0,-4.493596923E-1,2.226403958E0,3.316904731E0
1.853654458E0,2.768813024E0,-6.943504268E-1,7.418236783E-1,2.949364414E0
1.863597458E0,5.052777851E0,-7.858014643E-1,-3.208264902E0,6.036639101E0
1.873541458E0,6.498379129E0,-1.044814991E0,-5.591278346E0,8.636142843E0
1.883484458E0,6.650239506E0,-1.026449472E0,-3.857574519E0,7.756298420E0
1.893428458E0,6.348188717E0,-1.955496025E-1,-1.034888173E0,6.434961785E0
1.903371458E0,4.494090136E0,6.390252417E-1,1.732076839E0,4.858527512E0
1.913315458E0,1.628730226E0,1.280511577E0,4.231745743E0,4.711702885E0
1.923258458E0,-6.427141039E-1,1.991356414E0,4.814083398E0,5.249188580E0
1.933202458E0,-2.371521764E0,2.578111056E0,3.678866360E0,5.079845449E0
1.943145458E0,-3.618866033E0,2.823862513E0,2.074441840E0,5.037231363E0
1.953089458E0,-3.928479318E0,2.805435598E0,6.590067856E-1,4.872135937E0
1.963032458E0,-3.540859206E0,2.500184628E0,-4.488255492E-1,4.357757619E0
1.972976458E0,-2.903836928E0,2.133698108E0,-1.069127275E0,3.758719151E0
1.982919458E0,-1.922590965E0,1.731128420E0,-1.257364789E0,2.876478374E0
1.992863458E0,-1.450588369E0,1.199551613E0,-1.311352423E0,2.294074076E0
2.002806458E0,-1.691158316E0,8.592869318E-1,-1.135301384E0,2.210723799E0
2.012750458E0,-2.598119643E0,8.144908279E-1,-9.160995023E-1,2.872779018E0
2.022693458E0,-3.395411471E0,1.131404069E0,-3.550563830E-1,3.596520438E0
2.032637458E0,-3.709780296E0,1.467123710E0,4.633794151E-1,4.016172595E0
2.042580458E0,-3.426477143E0,1.583537681E0,1.225264013E0,3.968577718E0
2.052524458E0,-2.717439388E0,1.630801894E0,1.842306794E0,3.665799499E0
2.062467458E0,-1.801492644E0,1.726002166E0,2.605004740E0,3.607008306E0
2.072411458E0,-6.717822209E-1,1.859406976E0,3.637142968E0,4.139745719E0
2.082354458E0,5.707291782E-2,2.034512374E0,4.566125202E0,4.999199663E0
2.092298458E0,2.410292093E-1,2.195283907E0,5.050389848E0,5.512150590E0
2.102241458E0,6.979603516E-1,1.992841022E0,5.450922951E0,5.845607325E0
2.112185458E0,7.554744418E-1,1.631161498E0,4.964193118E0,5.279644191E0
2.122129458E0,1.260237526E0,9.019523102E-1,4.716295733E0,4.964389392E0
2.132072458E0,1.967171453E0,-5.218990803E-2,4.359617917E0,4.783174228E0
2.142016458E0,1.870807146E0,-9.919017828E-1,4.183308578E0,4.688694827E0
2.151959458E0,1.323552639E0,-1.845601115E0,4.172777157E0,4.750800382E0
2.161903458E0,2.797326241E-1,-2.455851624E0,4.514449264E0,5.146815491E0
2.171846458E0,-9.954834216E-1,-2.478462222E0,4.992878973E0,5.662384893E0
2.181790458E0,-2.554221964E0,-1.962215061E0,5.156261873E0,6.079586688E0
2.191733458E0,-3.809028011E0,-1.405750750E0,5.558918100E0,6.883778033E0
2.201677458E0,-4.571833546E0,-6.395748800E-1,5.909801325E0,7.499097926E0
2.211620458E0,-4.555441754E0,3.780885655E-1,6.211736923E0,7.712371629E0
2.221564458E0,-4.737655612E0,1.379580951E0,6.487318536E0,8.150700957E0
2.231507458E0,-5.523241314E0,2.123309945E0,6.036012890E0,8.452697282E0
2.241451458E0,-6.235086610E0,2.830204988E0,4.963654590E0,8.457200021E0
2.251394458E0,-6.507165155E0,3.595904310E0,3.405492071E0,8.177475308E0
2.261338458E0,-6.126451190E0,4.443020847E0,1.476645754E0,7.710662819E0
2.271281458E0,-5.079276263E0,4.958243576E0,-4.841208047E-1,7.114604674E0
2.281225458E0,-3.560790610E0,4.831461908E0,-1.887094273E0,6.291532304E0
2.291168458E0,-1.744669987E0,3.546308811E0,-1.755468625E0,4.324563520E0
2.301112458E0,3.036356762E-1,1.330919253E0,-1.076920006E0,1.738763176E0
2.311055458E0,3.002817718E0,-1.629234256E0,-7.347456238E-1,3.494448402E0
2.320999458E0,6.367262335E0,-6.809335227E0,-5.841691495E-1,9.340788482E0
2.330942458E0,9.814668417E0,-1.242387263E1,7.655689287E-1,1.585138552E1
2.340886458E0,1.104130082E1,-1.490600515E1,2.111160454E0,1.866966287E1
2.350829458E0,9.590778530E0,-1.380468442E1,1.989811580E0,1.692665634E1
2.360773458E0,6.668236651E0,-1.180376020E1,2.791061972E0,1.384139306E1
2.370716458E0,3.953199299E0,-9.932934201E0,4.096195297E0,1.144857120E1
2.380660458E0,1.920174749E0,-8.492525834E0,3.760210485E0,9.484157791E0
2.390603458E0,1.998034519E-1,-6.343376459E0,1.739969995E0,6.580717431E0
2.400547458E0,-1.966937564E0,-4.073834667E0,-1.662091807E0,4.819493900E0
2.410490458E0,-9.502402543E0,-3.693665662E0,-6.572105502E0,1.212977291E1
2.420434458E0,-1.011919024E1,-2.747772111E0,-9.359377309E0,1.405511317E1
2.430377458E0,-7.001287038E0,-8.601657683E-1,-9.504608113E0,1.183619367E1
2.440321458E0,-5.611951761E0,3.141860998E-1,-9.447317094E0,1.099293026E1
2.450264458E0,-3.425148656E0,1.236353404E0,-9.178432297E0,9.874402893E0
2.460208458E0,-2.737379270E0,2.236672254E0,-8.128274120E0,8.863678029E0
2.470151458E0,-1.162411561E0,3.172839546E0,-5.949617940E0,6.842226616E0
2.480095458E0,8.636618185E-1,3.798954136E0,-3.532518446E0,5.258959101E0
2.490039458E0,2.036094923E0,4.066030388E0,-1.427417315E0,4.766110138E0
2.499982458E0,2.775649004E0,3.996836193E0,7.922275543E-2,4.866744619E0
2.509926458E0,3.554307218E0,3.662737985E0,6.709849530E-1,5.147715042E0
2.519869458E0,4.112994055E0,2.934130476E0,5.435735393E-1,5.081467695E0
2.529813458E0,4.247137661E0,2.083639510E0,-5.583015060E-1,4.763552507E0
2.539756458E0,4.868432683E0,1.578090999E0,-1.983188438E0,5.488628642E0
2.549700458E0,5.588513782E0,1.454158094E0,-2.978982128E0,6.497722414E0
2.559643458E0,6.179751484E0,1.611314878E0,-3.797732945E0,7.430238190E0
2.569587458E0,6.227478213E0,1.893014433E0,-4.314596111E0,7.809015823E0
2.579530458E0,6.200980386E0,2.067034587E0,-3.955129758E0,7.639884890E0
2.589474458E0,6.113748114E0,2.126317168E0,-3.253402483E0,7.244568201E0
2.599417458E0,6.254068426E0,2.161216274E0,-2.747137688E0,7.164565105E0
2.609361458E0,6.298580940E0,2.291491655E0,-2.193004662E0,7.052114953E0
2.619304458E0,5.900984893E0,2.774828348E0,-1.795254250E0,6.763448299E0
2.629248458E0,5.379743625E0,3.167712708E0,-1.929277110E0,6.534382560E0
2.639191458E0,4.560524738E0,3.054262106E0,-2.340014481E0,5.966788975E0
2.649135458E0,3.301339127E0,2.721433913E0,-1.871023639E0,4.669665088E0
2.659078458E0,1.253692153E0,2.190966908E0,5.622378516E-1,2.586153786E0
2.669022458E0,-1.509116366E0,1.663054551E0,4.003280409E0,4.590145605E0
2.678965458E0,-4.325485673E0,9.264936590E-1,6.684979568E0,8.016056925E0
2.688909458E0,-7.515712792E0,-4.728847951E-1,7.716111490E0,1.078183358E1
2.698852458E0,-1.150707599E1,-1.876320047E0,7.831051962E0,1.404488340E1
2.708796458E0,-1.558492769E1,-3.329537324E0,8.243850769E0,1.794259919E1
2.718739458E0,-1.831013014E1,-5.193563016E0,8.065175647E0,2.067077697E1
2.728683458E0,-1.602282217E1,-5.125114340E0,7.443186852E0,1.839561518E1
2.738626458E0,-1.087068258E1,-3.394046146E0,6.508449204E0,1.311682889E1
2.748570458E0,-6.605541050E0,-1.601327249E0,4.958038339E0,8.413059235E0
2.758513458E0,-2.308547983E0,9.328612769E-1,-4.709464431E-1,2.534051006E0
2.768457458E0,1.620577453E0,3.167413915E0,-8.491287394E0,9.206559824E0
2.778400458E0,4.825037864E0,1.807826933E0,-9.854236525E0,1.112003625E1
2.788344500E0,6.337763717E0,-1.403979628E0,-7.854481755E0,1.018976405E1
2.798287500E0,6.655542930E0,-4.076633729E0,-3.453915787E0,8.534912333E0
2.808231500E0,5.119530834E0,-6.782928616E0,-1.283171475E-2,8.498110450E0
2.818174500E0,1.850327420E0,-9.358732361E0,5.084852752E-1,9.553436044E0
2.828118500E0,-9.527479497E-1,-1.109769488E1,-1.322766480E0,1.121678526E1
2.838061500E0,-2.338406205E0,-1.006615599E1,-2.654368104E0,1.066964433E1
2.848005500E0,-2.438465513E0,-4.564634746E0,-1.549647219E0,5.402167244E0
2.857949500E0,-2.568091560E0,1.060332332E0,1.855037937E-1,2.784566496E0
2.867892500E0,-1.797165997E0,3.854202138E0,5.927962777E-1,4.293726489E0
2.877836500E0,1.732985204E0,4.603814600E0,-7.550199670E-1,4.976786286E0
2.887779500E0,4.440103086E0,2.627259827E0,-2.574723179E0,5.765952572E0
2.897723500E0,6.363357564E0,7.380975401E-1,-4.284017512E0,7.706485159E0
2.907666500E0,7.242206941E0,-6.804995424E-1,-3.985937275E0,8.294596853E0
2.917610500E0,5.524026010E0,-2.203681093E0,-2.499997810E0,6.451438814E0
2.927553500E0,3.478336976E0,-2.664719430E0,-1.702477648E0,4.700849700E0
2.937497500E0,2.078796262E0,-3.200209193E0,-1.538642174E0,4.114626656E0
2.947440500E0,1.595272165E0,-3.509761959E0,-1.365065238E0,4.089831952E0
2.957384500E0,1.851830154E0,-3.124559671E0,-1.269220018E0,3.847475473E0
2.967327500E0,1.609638482E0,-2.638606349E0,-3.964903378E-1,3.116148921E0
2.977271500E0,1.065654760E0,-2.248423988E0,1.117297661E-1,2.490685455E0
2.987214500E0,1.158917558E0,-1.790199332E0,6.702838719E-1,2.235438217E0
2.997158500E0,6.083843699E-1,-1.416268721E0,1.877363775E0,2.429082826E0
3.007101500E0,1.249690026E0,-1.181356248E0,2.993823823E0,3.452580025E0
3.017045500E0,3.131705846E0,-9.199254817E-1,2.539690464E0,4.135682779E0
3.026988500E0,4.987764999E0,-7.701882291E-1,1.650765165E0,5.309992017E0
3.036932500E0,6.729155282E0,-8.379539502E-1,-1.710563763E0,6.993548886E0
3.046875500E0,7.393103111E0,-1.313006308E0,-6.706101465E0,1.006746026E1
3.056819500E0,6.383266164E0,-1.660467158E0,-4.826610765E0,8.173090577E0
3.066762500E0,5.396391233E0,-4.262368780E-1,-1.044681090E0,5.513082150E0
3.076706500E0,3.582652765E0,1.224079514E0,1.835810830E0,4.207608928E0
3.086649500E0,7.864901201E-1,1.994047303E0,3.657523730E0,4.239371556E0
3.096593500E0,-1.488517503E0,2.395807736E0,3.617732258E0,4.587326646E0
3.106536500E0,-2.819392025E0,2.571000842E0,2.396994428E0,4.506062473E0
3.116480500E0,-3.332298380E0,2.313641492E0,8.937662083E-1,4.154030269E0
3.126423500E0,-2.856398175E0,1.973055798E0,-3.035406590E-1,3.484838110E0
3.136367500E0,-1.968125719E0,1.697311049E0,-9.079325500E-1,2.752948448E0
3.146310500E0,-1.285592515E0,1.719090757E0,-8.466534376E-1,2.307562174E0
3.156254500E0,-8.274448957E-1,1.756714666E0,-9.156672469E-1,2.146894963E0
3.166198500E0,-1.009148291E0,1.550695040E0,-1.053374730E0,2.128998286E0
3.176141500E0,-1.879137967E0,1.320448059E0,-1.047683635E0,2.524358052E0
3.186085500E0,-3.016577678E0,1.378322046E0,-4.592607826E-1,3.348198473E0
3.196028500E0,-3.827307869E0,1.657392692E0,7.547606429E-1,4.238502057E0
3.205972500E0,-4.039085249E0,1.950214820E0,2.121587355E0,4.961721516E0
3.215915500E0,-3.650459417E0,2.149147037E0,3.317194437E0,5.380377856E0
3.225859500E0,-3.009465417E0,2.310977501E0,4.008204934E0,5.519348322E0
3.235802500E0,-2.199473876E0,2.354251574E0,4.323647016E0,5.392041294E0
3.245746500E0,-1.453112173E0,2.388927902E0,4.555758088E0,5.345413292E0
3.255689500E0,-1.097400171E0,2.541188228E0,4.816407081E0,5.555150936E0
3.265633500E0,-8.788803667E-1,2.460454552E0,4.947306359E0,5.594828640E0
3.275576500E0,-7.849599038E-1,1.998250281E0,4.262393923E0,4.772543158E0
3.285520500E0,-2.951158262E-1,1.276235508E0,4.057751901E0,4.263944290E0
3.295463500E0,1.852424414E-1,2.605115837E-1,4.484475852E0,4.495854169E0
3.305407500E0,8.682470588E-1,-8.091417950E-1,4.474760118E0,4.629475296E0
3.315350500E0,1.012070876E0,-2.031563038E0,4.107167305E0,4.692585546E0
3.325294500E0,3.768268825E-1,-3.108013805E0,4.232882441E0,5.264887660E0
3.335237500E0,-2.530999455E-1,-3.519037982E0,4.782041241E0,5.942693525E0
3.345181500E0,-8.847848850E-1,-2.697118852E0,5.463023179E0,6.156453252E0
3.355124500E0,-2.268705055E0,-1.578692093E0,6.255803295E0,6.839178768E0
3.365068500E0,-3.612603665E0,-9.355504113E-1,6.738605552E0,7.702919226E0
3.375011500E0,-4.481387645E0,-3.022998798E-1,6.613033088E0,7.994149552E0
3.384955500E0,-4.345590447E0,7.633019632E-1,6.651960926E0,7.982190826E0
3.394898500E0,-4.331444278E0,1.726564084E0,6.523918598E0,8.018974182E0
3.404842500E0,-4.684412620E0,2.407386977E0,5.819533179E0,7.848961720E0
3.414785500E0,-5.008078226E0,2.930025145E0,4.506606393E0,7.346794951E0
3.424729500E0,-4.969505314E0,3.688052335E0,2.659721814E0,6.735861728E0
3.434672500E0,-4.491662957E0,4.467574475E0,4.583983183E-1,6.351723138E0
3.444616500E0,-3.558276892E0,4.962329611E0,-1.864387634E0,6.384511795E0
3.454559500E0,-2.302931732E0,4.837689192E0,-3.074320394E0,6.177230542E0
3.464503500E0,-9.725108077E-1,3.405127789E0,-2.016576186E0,4.075199633E0
3.474446500E0,7.335685793E-1,1.021412095E0,-5.191029418E-1,1.360468079E0
3.484390500E0,3.170573750E0,-2.495313898E0,2.562496944E-1,4.042869434E0
3.494334500E0,5.931793288E0,-8.547787870E0,6.513233981E-1,1.042473363E1
3.504277500E0,8.872821724E0,-1.539890905E1,1.725629406E0,1.785584392E1
3.514221500E0,1.046270246E1,-1.756283493E1,2.072954016E0,2.054795493E1
3.524164500E0,9.500573534E0,-1.435426889E1,8.376300144E-1,1.723390719E1
3.534108500E0,5.948454344E0,-1.029023884E1,1.059094769E0,1.193292949E1
3.544051500E0,2.246672162E0,-7.835956607E0,2.037435105E0,8.402433787E0
3.553995500E0,-1.059131607E0,-5.479104776E0,1.904596890E0,5.896595477E0
3.563938500E0,-1.527412304E0,-2.879339141E0,7.438082233E-1,3.343177068E0
3.573882500E0,-3.113009666E0,-2.105011668E0,-2.454021153E0,4.488220485E0
3.583825500E0,-6.783850722E0,-2.099867873E0,-6.124546752E0,9.377640888E0
3.593769500E0,-8.559763552E0,-1.607162186E0,-8.091757089E0,1.188818973E1
3.603712500E0,-7.385807540E0,-7.581219149E-1,-9.232288077E0,1.184736447E1
3.613656500E0,-5.442133416E0,3.308822393E-1,-9.702918186E0,1.112982122E1
3.623599500E0,-3.231400873E0,1.247426276E0,-9.005464641E0,9.648648471E0
3.633543500E0,-1.578521062E0,1.505051674E0,-7.598915162E0,7.905720772E0
3.643486500E0,-5.214196086E-2,1.567584722E0,-5.349105969E0,5.574313887E0
3.653430500E0,1.354555453E0,2.087786940E0,-2.777559582E0,3.729411752E0
3.663373500E0,2.455300232E0,2.994219387E0,-7.675493807E-1,3.947528469E0
3.673317500E0,3.263225806E0,3.335581591E0,4.915268880E-1,4.692157914E0
3.683260500E0,3.813732681E0,3.018076612E0,8.084108931E-1,4.930199952E0
3.693204500E0,4.302997281E0,2.650934034E0,8.643655309E-1,5.127413054E0
3.703147500E0,5.208700873E0,2.352683351E0,2.230022800E-1,5.719738958E0
3.713091500E0,6.027014025E0,2.045268327E0,-1.149066169E0,6.467485883E0
3.723034500E0,6.508756768E0,2.029222983E0,-2.628983002E0,7.307065909E0
3.732978500E0,6.758532279E0,2.160161437E0,-3.878394992E0,8.086161247E0
3.742922500E0,6.694278395E0,2.082911532E0,-4.265331565E0,8.206396105E0
3.752865500E0,6.207939742E0,1.822124544E0,-4.135008822E0,7.678343028E0
3.762809500E0,5.809572448E0,1.787950493E0,-3.870065341E0,7.205921505E0
3.772752500E0,5.570013776E0,2.098568037E0,-3.614677673E0,6.963830552E0
3.782696208E0,5.242661501E0,2.689374214E0,-3.367517914E0,6.786634673E0
3.792639208E0,4.709050740E0,3.082716996E0,-3.538178258E0,6.648083057E0
3.802583208E0,4.069674081E0,3.266456977E0,-4.064117472E0,6.614305643E0
3.812526208E0,2.573156710E0,3.240592403E0,-3.139198760E0,5.193952583E0
3.822470208E0,5.486220253E-1,3.085840579E0,6.727864802E-2,3.134952092E0
3.832413208E0,-1.495640288E0,2.797176991E0,3.848032740E0,4.986832157E0
3.842357208E0,-3.750673968E0,1.666240114E0,6.522466149E0,7.706262129E0
3.852300208E0,-6.119367288E0,2.049911016E-1,7.746888310E0,9.874358503E0
3.862244208E0,-8.578969316E0,-1.366504238E0,8.484113445E0,1.214274390E1
3.872187208E0,-1.183515040E1,-3.732049710E0,8.739854286E0,1.517840680E1
3.882131208E0,-1.506695327E1,-6.573190745E0,8.530522796E0,1.851998209E1
3.892074208E0,-1.591099768E1,-7.830568398E0,8.209304835E0,1.954150287E1
3.902018208E0,-1.303835886E1,-5.506558623E0,8.018717179E0,1.626716985E1
3.911961208E0,-8.011456107E0,-2.374544921E0,6.945640841E0,1.086571761E1
3.921905208E0,-2.657813868E0,-1.965307653E-2,3.956468770E0,4.766340937E0
3.931848208E0,2.586814052E-1,2.115315632E0,-5.023389745E0,5.456731698E0
3.941792208E0,1.354242919E0,2.084045892E0,-1.319503149E1,1.342706510E1
3.951735208E0,3.296516343E0,-2.165329206E0,-8.726370606E0,9.576283963E0
3.961679208E0,5.718941774E0,-5.658450574E0,-4.696050041E0,9.315430420E0
3.971622208E0,5.670230375E0,-7.445222268E0,-1.429526698E0,9.467121722E0
3.981566208E0,3.643862588E0,-8.153346981E0,3.742218018E-3,8.930555165E0
3.991510208E0,1.659311748E0,-8.093570310E0,-1.236870590E0,8.353983763E0
4.001453208E0,8.956706464E-2,-6.690221012E0,-2.740690548E0,7.230384785E0
4.011397208E0,-4.751280794E-1,-2.924619395E0,-1.693407447E0,3.412737036E0
4.021340208E0,1.169092298E-2,1.157116615E0,1.453921866E-1,1.166273736E0
4.031284208E0,8.967038494E-1,3.286856743E0,5.507545048E-1,3.451207842E0
4.041227208E0,2.200367476E0,3.051675882E0,-8.911361307E-1,3.866324653E0
4.051171208E0,3.615474063E0,1.350064791E0,-2.202806350E0,4.443724053E0
4.061114208E0,4.132543636E0,-1.249541799E0,-2.881938813E0,5.190842218E0
4.071058208E0,3.451856983E0,-3.217336273E0,-3.616599652E0,5.945280680E0
4.081001208E0,3.623409612E0,-3.435629790E0,-3.869922669E0,6.317353143E0
4.090945208E0,3.514115796E0,-3.679518324E0,-2.650979058E0,5.737207935E0
4.100888208E0,3.199103192E0,-3.874765626E0,-1.566696238E0,5.263326609E0
4.110832208E0,2.793835891E0,-3.394582336E0,-1.508796231E0,4.648136647E0
4.120775208E0,2.431906106E0,-2.104230480E0,-2.085749770E0,3.833054308E0
4.130719208E0,2.413160518E0,-1.101745822E0,-1.947547320E0,3.290915998E0
4.140662208E0,2.847018949E0,-4.690975535E-1,-1.124687372E0,3.096851804E0
4.150606208E0,1.454068339E0,-5.536675876E-1,5.221391085E-1,1.641186090E0
4.160549208E0,7.305824062E-1,-1.265711689E-1,2.035843492E0,2.166663250E0
4.170493208E0,6.281067359E-1,6.963618690E-1,2.635502647E0,2.797375936E0
4.180437208E0,7.963352233E-1,1.249192135E0,3.035337008E0,3.377558516E0
4.190380208E0,2.871823130E0,1.568664703E0,4.031632681E0,5.192507979E0
4.200324208E0,5.940089318E0,1.334163873E0,1.254869489E0,6.216055966E0
4.210267208E0,6.978269473E0,-1.344356740E-1,-4.620446127E0,8.370354844E0
4.220211208E0,5.447324574E0,-9.890717304E-1,-4.581654822E0,7.186318168E0
4.230154208E0,3.511043669E0,-2.296622586E-1,-1.853832241E0,3.977042416E0
4.240098208E0,1.562698935E0,1.156435999E0,6.814058608E-1,2.060020905E0
4.250041208E0,-1.018499451E0,2.002897648E0,2.535618170E0,3.387963935E0
4.259985208E0,-2.685536979E0,2.499723868E0,3.284805540E0,4.924497509E0
4.269928208E0,-2.946832382E0,2.915301272E0,3.117154173E0,5.186468233E0
4.279872208E0,-2.874009989E0,2.908519086E0,1.827977023E0,4.478941469E0
4.289815208E0,-2.560810899E0,2.635648243E0,-3.644584134E-2,3.675013254E0
4.299759208E0,-2.046835673E0,2.488178540E0,-8.522774358E-1,3.332708441E0
4.309702208E0,-1.734093836E0,2.228680279E0,-1.081776411E0,3.023960552E0
4.319646208E0,-1.785672856E0,1.767736668E0,-1.197764850E0,2.783551888E0
4.329589208E0,-2.193589676E0,1.271050197E0,-9.392576922E-1,2.703628910E0
4.339533208E0,-2.916878850E0,1.012612621E0,-5.240980719E-1,3.131811830E0
4.349476208E0,-3.533926747E0,8.742569733E-1,-5.239090607E-2,3.640838958E0
4.359420208E0,-3.579329792E0,5.493371397E-1,4.015347308E-1,3.643432886E0
4.369364208E0,-3.039937597E0,2.625768203E-1,6.370036400E-1,3.117040394E0
4.379307208E0,-1.999445891E0,2.448463082E-2,6.912846585E-1,2.115716863E0
4.389251208E0,-6.560530646E-1,1.116104829E-1,1.329097846E0,1.486392817E0
4.399194208E0,2.602836885E-1,3.237995070E-1,2.710727661E0,2.742378197E0
4.409138208E0,4.660971644E-1,9.265959853E-1,4.798472502E0,4.909293741E0
4.419081208E0,2.828866853E-1,1.830412388E0,7.030312616E0,7.270194624E0
4.429025208E0,-1.718597179E-2,2.256221834E0,7.831767662E0,8.150301653E0
4.438968208E0,-2.270188603E-1,1.750331261E0,6.206718258E0,6.452793862E0
4.448912208E0,2.129437535E-1,9.378600615E-1,4.001235638E0,4.115192968E0
4.458855208E0,1.197363293E0,-3.724781621E-1,3.824932145E0,4.025235987E0
4.468799208E0,1.879427404E0,-1.738544444E0,3.991746191E0,4.742238059E0
4.478742208E0,1.769396254E0,-2.773906242E0,4.373457107E0,5.472882788E0
4.488686208E0,1.113498579E0,-3.567395040E0,5.110972264E0,6.331526194E0
4.498629208E0,-7.634636387E-2,-3.273900483E0,5.336304660E0,6.261022325E0
4.508573208E0,-1.664240512E0,-2.484515845E0,5.387022239E0,6.161373554E0
4.518516208E0,-3.139625607E0,-1.868415197E0,5.656059648E0,6.733441545E0
4.528460208E0,-3.992683208E0,-1.270324557E0,6.169015996E0,7.457345509E0
4.538404208E0,-4.713347859E0,-8.884861726E-1,6.374855529E0,7.977708865E0
4.548347208E0,-5.500245384E0,-4.072924840E-1,5.696887246E0,7.929256633E0
4.558291208E0,-6.177003293E0,4.332576299E-1,4.592663959E0,7.709451608E0
4.568234208E0,-6.434386032E0,1.334516460E0,3.329895174E0,7.366848692E0
4.578178208E0,-6.161584185E0,2.178414105E0,1.862076230E0,6.795434907E0
4.588121208E0,-5.389468129E0,2.685764143E0,1.179653831E-1,6.022757805E0
4.598065208E0,-3.785892041E0,2.449284031E0,-1.208921192E0,4.668346737E0
4.608008208E0,-1.508340002E0,1.790805688E0,-2.199440108E0,3.212415191E0
4.617952208E0,8.346360938E-1,3.482595795E-1,-2.463329043E0,2.624098344E0
4.627895208E0,3.193793043E0,-2.026250843E0,-1.951415546E0,4.256057931E0
4.637839208E0,5.901825138E0,-4.866934626E0,-1.405383691E0,7.777769342E0
4.647782208E0,8.201282455E0,-6.730082651E0,-5.457133278E-1,1.062322218E1
4.657726208E0,9.446020181E0,-7.064888372E0,-1.768462600E-1,1.179708521E1
4.667669208E0,8.535531521E0,-6.513115282E0,-1.881669080E-1,1.073831345E1
4.677613208E0,6.580344813E0,-5.600006484E0,3.924206758E-1,8.649566722E0
4.687556208E0,4.917046434E0,-5.202202862E0,1.648414585E0,7.345579003E0
4.697500208E0,3.374652686E0,-6.014468240E0,4.687406394E0,8.338698200E0
4.707443208E0,3.325943041E-1,-6.829135069E0,4.511909233E0,8.191765969E0
4.717387208E0,-1.370675934E0,-5.000466321E0,4.298674142E-1,5.202711018E0
4.727331208E0,-3.700246411E0,-2.823864267E0,-4.226109904E0,6.286973662E0
4.737274208E0,-7.533176086E0,-1.632953669E0,-7.648728177E0,1.085902032E1
4.747218208E0,-9.274626596E0,-1.339921042E0,-8.715387781E0,1.279734625E1
4.757161208E0,-5.768176500E0,-8.398355842E-2,-8.837993953E0,1.055410112E1
4.767105208E0,-3.203181333E0,8.095446682E-1,-8.235646541E0,8.873646780E0
4.777048208E0,-2.762374363E0,1.243124480E0,-7.206700308E0,7.817454824E0
4.786995958E0,-1.863752334E0,1.928049780E0,-6.291801678E0,6.839423738E0
4.796938958E0,9.381272793E-3,2.546540769E0,-5.374496334E0,5.947282467E0
4.806882958E0,7.800530666E-1,2.851971833E0,-4.135240664E0,5.083546151E0
4.816825958E0,1.228225774E0,2.976716917E0,-2.847556601E0,4.298599859E0
4.826769958E0,2.052124480E0,2.846579531E0,-1.821749153E0,3.953858860E0
4.836712958E0,2.953416055E0,2.552803137E0,-1.233431258E0,4.093998402E0
4.846656958E0,3.954559069E0,2.104074944E0,-1.106755131E0,4.614171185E0
4.856599958E0,4.910433233E0,1.437723325E0,-1.587819889E0,5.357291750E0
4.866543958E0,5.333354155E0,8.327902740E-1,-2.783899133E0,6.073573953E0
4.876486958E0,5.474211241E0,6.246983939E-1,-4.031423058E0,6.827123015E0
4.886430958E0,5.693247355E0,7.584464353E-1,-4.498464146E0,7.295511367E0
4.896374958E0,5.944923795E0,1.141524430E0,-3.902189359E0,7.202241231E0
4.906317958E0,6.209072932E0,1.615670469E0,-2.789553975E0,6.996040961E0
4.916261958E0,6.590515460E0,1.933141535E0,-1.496103388E0,7.029242888E0
4.926204958E0,6.849755275E0,2.188954296E0,-3.974065965E-1,7.201985854E0
4.936148958E0,6.380146675E0,2.446243479E0,-2.964810231E-1,6.839464873E0
4.946091958E0,5.201184862E0,2.754226268E0,-6.386556977E-1,5.919963463E0
4.956035958E0,3.658345556E0,2.766486125E0,-8.781442022E-1,4.669911662E0
4.965978958E0,1.780743507E0,2.393125618E0,-9.973443711E-1,3.145281141E0
4.975922958E0,-9.993648764E-1,1.691011843E0,-4.132619065E-1,2.007246027E0
4.985865958E0,-3.836697913E0,9.672686327E-1,1.303084753E0,4.165799966E0
4.995809958E0,-5.179267743E0,5.070524150E-1,3.397321172E0,6.214797475E0
5.005752958E0,-7.786168735E0,-4.835752594E-1,6.120111639E0,9.915343417E0
5.015696958E0,-1.111064763E1,-2.336338629E0,7.674210927E0,1.370395864E1
5.025640958E0,-1.418806764E1,-3.679342323E0,8.852963410E0,1.712348634E1
5.035583958E0,-1.802970703E1,-5.177494283E0,8.561331775E0,2.061972804E1
5.045527958E0,-1.752332763E1,-4.755643401E0,7.852247534E0,1.978233926E1
5.055470958E0,-1.182399625E1,-2.783051287E0,7.545756955E0,1.430002482E1
5.065414958E0,-5.359447939E0,-1.201867695E0,5.902258417E0,8.062556827E0
5.075357958E0,-5.324971586E-1,3.088440835E-2,6.359206626E-1,8.300013011E-1
5.085301958E0,2.091928523E0,4.835074317E-1,-9.840318983E0,1.007183310E1
5.095244958E0,4.617671039E0,-2.515865691E0,-1.081436922E1,1.202510073E1
5.105188958E0,6.339813166E0,-5.747084423E0,-7.572900315E0,1.142676811E1
5.115131958E0,7.256410997E0,-6.325149518E0,-3.516010879E0,1.024818762E1
5.125075958E0,4.687551113E0,-5.726354290E0,-1.032572384E0,7.471979297E0
5.135018958E0,1.495003234E0,-5.950375739E0,-8.237475550E-1,6.190360744E0
5.144962958E0,1.587100974E-1,-6.562160558E0,-2.843446885E0,7.153483785E0
5.154905958E0,-5.042784959E-1,-5.215758462E0,-3.950896373E0,6.562622592E0
5.164849958E0,-4.248537192E-1,-1.033797668E0,-2.123937936E0,2.400073052E0
5.174793958E0,1.862940449E-1,2.533790331E0,-1.934504521E-1,2.547983907E0
5.184736958E0,1.320964661E0,4.356158119E0,3.921575511E-1,4.568900168E0
5.194680958E0,2.419212971E0,4.211536596E0,-2.282197505E-1,4.862274792E0
5.204623958E0,3.547884636E0,2.655280854E0,-1.107445395E0,4.567760623E0
5.214567958E0,3.982818078E0,4.247809213E-1,-1.852348802E0,4.412989322E0
5.224510958E0,3.774391737E0,-1.714905320E0,-1.974102742E0,4.591733320E0
5.234454958E0,2.345999691E0,-2.889526745E0,-1.532340045E0,4.025064642E0
5.244397958E0,1.310593747E0,-3.093659475E0,-1.715896131E0,3.772623020E0
5.254341958E0,1.359260123E0,-3.260484046E0,-1.744095790E0,3.939570335E0
5.264284958E0,1.647953824E0,-3.240859036E0,-1.436638666E0,3.909328556E0
5.274228958E0,1.896467506E0,-2.613514193E0,-1.220041719E0,3.451890385E0
5.284171958E0,2.416105468E0,-1.924733824E0,-1.006411941E0,3.248850707E0
5.294115958E0,2.265004645E0,-1.386000609E0,-1.129275390E0,2.885568685E0
5.304058958E0,1.494569955E0,-1.048312796E0,3.683968055E-1,1.862368190E0
5.314002958E0,7.314928177E-1,-3.682441932E-1,2.769105093E0,2.887668358E0
5.323946958E0,2.237265454E0,4.475359458E-1,3.203977431E0,3.933334020E0
5.333889958E0,2.371494721E0,8.301210201E-1,2.722912089E0,3.705042289E0
5.343833958E0,3.773591546E0,9.568506485E-1,-1.828915501E-1,3.897307485E0
5.353776958E0,5.871444175E0,1.088810027E-2,-5.465019418E0,8.021247565E0
5.363720958E0,5.153735876E0,-8.422645175E-1,-4.645487705E0,6.989346108E0
5.373663958E0,4.726832123E0,-1.834213078E-1,-1.396598980E0,4.932248372E0
5.383607958E0,3.489111348E0,4.887605703E-1,9.930038367E-1,3.660442803E0
5.393550958E0,1.559367045E0,9.278566450E-1,2.316342760E0,2.942445805E0
5.403494958E0,-2.262868072E-1,1.211164184E0,2.545457280E0,2.827981111E0
5.413437958E0,-1.891329411E0,1.252823841E0,1.537167945E0,2.740361255E0
5.423381958E0,-2.540828332E0,1.378098097E0,2.215648882E-1,2.898974643E0
5.433324958E0,-2.504112788E0,1.660676488E0,-6.125218597E-1,3.066530659E0
5.443268958E0,-2.187341634E0,2.002638617E0,-4.871116555E-1,3.005378947E0
5.453212958E0,-1.797948062E0,2.108960293E0,-2.965181530E-1,2.787158726E0
5.463155958E0,-1.561266806E0,1.838528908E0,-3.733852114E-1,2.440729215E0
5.473099958E0,-1.828021169E0,1.543298897E0,-5.256709729E-1,2.449441334E0
5.483042958E0,-2.484488947E0,1.223431642E0,-5.659226207E-1,2.826612588E0
5.492986958E0,-3.105506227E0,1.040383387E0,-5.764550641E-2,3.275651007E0
5.502929958E0,-3.305890015E0,9.898289448E-1,5.305628997E-1,3.491441983E0
5.512873958E0,-3.271251694E0,9.420238638E-1,9.096729738E-1,3.523634704E0
5.522816958E0,-2.994025260E0,1.112074928E0,1.086588669E0,3.373658672E0
5.532760958E0,-2.352832894E0,1.616611286E0,1.929641392E0,3.445688694E0
5.542703958E0,-1.472845503E0,2.013324988E0,3.639399408E0,4.412253328E0
5.552647958E0,-7.746283123E-1,2.128365448E0,5.744891717E0,6.175254598E0
5.562590958E0,-8.609460792E-1,2.086210531E0,6.685102360E0,7.055784584E0
5.572534958E0,-1.149443022E0,1.806393780E0,6.639115763E0,6.975825102E0
5.582478958E0,-1.084368482E0,1.398862730E0,6.099602530E0,6.351206418E0
5.592421958E0,-4.045409305E-1,7.600912571E-1,5.449147736E0,5.516756577E0
5.602365958E0,5.937990752E-1,-2.388558358E-1,4.776785764E0,4.819474212E0
5.612308958E0,1.208298756E0,-5.808360904E-1,4.285326703E0,4.490142693E0
5.622252958E0,1.340466879E0,-4.141056597E-1,3.982019933E0,4.221944777E0
5.632195958E0,9.430949275E-1,-6.431820273E-1,4.365342926E0,4.512131428E0
5.642139958E0,-2.399665144E-1,-9.239471966E-1,5.185192142E0,5.272331543E0
5.652082958E0,-1.514162221E0,-8.353291351E-1,6.141563904E0,6.380381586E0
5.662026958E0,-2.666609834E0,-6.104955071E-1,6.888811167E0,7.412100382E0
5.671969958E0,-3.465055610E0,-1.089067304E-1,7.229058892E0,8.017341424E0
5.681913958E0,-3.542881758E0,7.935151112E-1,7.259562061E0,8.116829351E0
5.691856958E0,-3.965391913E0,1.653453423E0,6.918635475E0,8.144062751E0
5.701800958E0,-4.732369144E0,2.491340715E0,6.152298222E0,8.151862958E0
5.711743958E0,-5.491623080E0,3.382911294E0,4.688607413E0,7.974023598E0
5.721687958E0,-6.045411705E0,4.294995659E0,2.386196083E0,7.790245319E0
5.731631958E0,-5.882377299E0,4.935751092E0,-3.216658580E-1,7.685536445E0
5.741574958E0,-4.782120471E0,5.237515367E0,-2.501300277E0,7.520421962E0
5.751518958E0,-3.003352738E0,4.380933357E0,-2.544357419E0,5.889521154E0
5.761461958E0,-1.180910982E0,1.983222352E0,-1.067944238E0,2.543270835E0
5.771405958E0,1.090938413E0,-1.569283338E0,-6.382731436E-1,2.014991172E0
5.781348958E0,4.195723678E0,-7.863089442E0,-4.227045751E-1,8.922496955E0
5.791292708E0,7.815404813E0,-1.537008228E1,4.802388382E-1,1.724965539E1
5.801235708E0,9.391888413E0,-1.798388240E1,1.321004422E0,2.033156774E1
5.811179708E0,7.500727547E0,-1.474159781E1,7.296620545E-1,1.655620810E1
5.821122708E0,3.173133661E0,-1.048660354E1,6.118419747E-1,1.097323934E1
5.831066708E0,1.030592809E0,-8.225678793E0,1.357081158E0,8.400332279E0
5.841009708E0,-6.128174365E-3,-6.888311815E0,1.435574181E0,7.036316539E0
5.850953708E0,-5.741708493E-1,-4.629317231E0,3.425366172E-1,4.677347701E0
5.860897708E0,-9.100027567E-1,-3.107954748E0,-1.612312121E0,3.617601154E0
5.870840708E0,-1.904801835E0,-2.489426336E0,-3.691888986E0,4.843093825E0
5.880784708E0,-3.678787130E0,-1.609796941E0,-4.993275415E0,6.407629851E0
5.890727708E0,-5.710885481E0,-6.385229659E-1,-7.001263064E0,9.057571918E0
5.900671708E0,-6.657095366E0,-2.083111507E-1,-9.006265710E0,1.120147911E1
5.910614708E0,-4.811520856E0,4.185261548E-1,-8.976341414E0,1.019316449E1
5.920558708E0,-2.646179078E0,1.536033146E0,-8.616683857E0,9.143790365E0
5.930501708E0,-1.383560859E0,1.945390867E0,-6.633289597E0,7.049774263E0
5.940445708E0,3.462446290E-1,2.173643362E0,-4.437399334E0,4.953294223E0
5.950388708E0,2.006995377E0,2.450279227E0,-3.076265178E0,4.415348931E0
5.960332708E0,3.010795659E0,2.891294358E0,-2.208557087E0,4.722520299E0
5.970275708E0,3.597507616E0,2.946837060E0,-1.624450648E0,4.925926270E0
5.980219708E0,4.425559307E0,2.931519694E0,-6.059171373E-1,5.342894203E0
5.990163708E0,5.306350543E0,2.626372220E0,3.583045113E-1,5.931573927E0
6.000106708E0,6.081149302E0,2.314999216E0,2.736394599E-1,6.512639769E0
6.010050708E0,6.143809234E0,2.130389169E0,-1.169691052E0,6.607051315E0
6.019993708E0,6.048633521E0,2.130471030E0,-2.626969513E0,6.930068044E0
6.029937708E0,6.087141529E0,2.202265483E0,-3.327502493E0,7.278429644E0
6.039880708E0,5.837863616E0,2.292096841E0,-3.321183407E0,7.096803418E0
6.049824708E0,5.482504347E0,2.357591504E0,-3.093309520E0,6.721953243E0
6.059767708E0,5.247971942E0,2.497928188E0,-2.741193701E0,6.426118397E0
6.069711708E0,4.941366173E0,2.892297156E0,-2.405684853E0,6.210459090E0
6.079654708E0,4.575499458E0,3.187196800E0,-2.290813962E0,6.028370206E0
6.089598708E0,4.058439533E0,3.243035370E0,-2.597351904E0,5.808136256E0
6.099541708E0,2.993839318E0,3.187627739E0,-2.760160022E0,5.171317803E0
6.109485708E0,1.192898944E0,2.933744559E0,-1.535925558E0,3.519791520E0
6.119429708E0,-1.101023691E0,2.454551788E0,1.083280315E0,2.900098944E0
6.129372708E0,-3.389067827E0,1.757135081E0,3.958323507E0,5.499238985E0
6.139316708E0,-5.865739632E0,7.502796292E-1,6.131892024E0,8.518798081E0
6.149259708E0,-8.457440786E0,-5.351898015E-1,7.287699448E0,1.117699852E1
6.159203708E0,-1.183475162E1,-2.578565969E0,8.396399363E0,1.473804161E1
6.169146708E0,-1.555980689E1,-5.382830955E0,9.091908123E0,1.880811667E1
6.179090708E0,-1.700949420E1,-7.460540804E0,8.674314600E0,2.049942184E1
6.189033708E0,-1.393650872E1,-6.252213104E0,7.985090427E0,1.723595409E1
6.198977708E0,-7.932340940E0,-3.376676992E0,7.037409382E0,1.112875155E1
6.208920708E0,-2.892572852E0,-6.644091743E-1,5.054289941E0,5.861251066E0
6.218864708E0,8.191188991E-1,2.229990640E0,-1.943256633E0,3.069211685E0
6.228807708E0,3.839689641E0,3.677686391E0,-1.140486432E1,1.258330338E1
6.238751708E0,6.453985898E0,1.160670553E0,-1.037927205E1,1.227723008E1
6.248695708E0,7.163529146E0,-2.207960671E0,-6.715766328E0,1.006443031E1
6.258638708E0,6.199661838E0,-4.270705740E0,-3.180264341E0,8.172442457E0
6.268582708E0,3.446495963E0,-5.679139193E0,-2.182260988E0,6.992368656E0
6.278525708E0,1.156411733E0,-6.892218339E0,-2.885172324E0,7.560699774E0
6.288469708E0,-7.452179870E-1,-8.091953555E0,-3.603271509E0,8.889242249E0
6.298412708E0,-2.663871876E0,-7.536673306E0,-1.920284970E0,8.221018930E0
6.308356708E0,-3.541079646E0,-3.180520449E0,1.157078608E0,4.898345261E0
6.318299708E0,-3.457928439E0,6.762182111E-1,2.578237648E0,4.365987807E0
6.328243708E0,-1.549420931E0,2.239914535E0,8.716616866E-1,2.859670688E0
6.338186708E0,4.751482522E-1,1.345097582E0,-2.191054031E0,2.614530767E0
6.348130708E0,2.232566339E0,-7.041339880E-1,-3.180487120E0,3.949133506E0
6.358073708E0,3.968233368E0,-2.446891351E0,-2.755422316E0,5.415395229E0
6.368017708E0,5.181295558E0,-3.429652766E0,-1.640476405E0,6.426469060E0
6.377961708E0,5.236685647E0,-3.905521980E0,-1.719202732E0,6.755119283E0
6.387904708E0,5.258010442E0,-3.908904594E0,-2.501654326E0,7.013164999E0
6.397848708E0,5.994650856E0,-3.694224656E0,-2.450043292E0,7.455591649E0
6.407791708E0,5.891586664E0,-3.083219272E0,-1.360838286E0,6.787408588E0
6.417735708E0,6.245415131E0,-2.374671806E0,-1.267167646E-1,6.682838730E0
6.427678708E0,5.410454371E0,-2.485839654E0,1.115551975E0,6.057794276E0
6.437622708E0,2.790282539E0,-2.322755547E0,1.823084365E0,4.062573886E0
6.447565708E0,1.155409228E0,-1.237985947E0,2.558378457E0,3.068041724E0
6.457509708E0,8.485868195E-1,2.280805868E-1,2.973873708E0,3.100974875E0
6.467452708E0,6.992275894E-1,1.154093020E0,3.373659829E0,3.633514905E0
6.477396708E0,1.926493251E0,1.945134759E0,3.130797481E0,4.158944378E0
6.487339708E0,4.191537072E0,2.175730818E0,-2.179661024E0,5.201318082E0
6.497283708E0,4.760168269E0,7.826696956E-1,-7.565288994E0,8.972478552E0
6.507226708E0,4.652699661E0,1.404431033E-1,-5.690327255E0,7.351677541E0
6.517170708E0,4.179825976E0,4.649103624E-1,-1.892802764E0,4.611918162E0
6.527114708E0,2.918391525E0,1.166859831E0,1.293059701E0,3.398613592E0
6.537057708E0,9.926689374E-1,1.707493975E0,3.230361530E0,3.786312574E0
6.547001708E0,-1.226642494E0,1.881819938E0,3.537989393E0,4.190855167E0
6.556944708E0,-3.291512004E0,1.682475493E0,2.733130099E0,4.597257355E0
6.566888708E0,-3.893343984E0,1.508049542E0,1.008954018E0,4.295384617E0
6.576831708E0,-3.525529561E0,1.438284658E0,-4.273955038E-1,3.831538641E0
6.586775708E0,-2.901215037E0,1.573351246E0,-1.239819633E0,3.525568827E0
6.596718708E0,-2.541352827E0,1.913659782E0,-1.631342031E0,3.575170594E0
6.606662708E0,-2.720911757E0,2.107687354E0,-1.459394714E0,3.738387313E0
6.616605708E0,-3.196182801E0,2.287590977E0,-1.012261788E0,4.058735135E0
6.626549708E0,-3.624013630E0,2.294399475E0,1.213041432E-1,4.290974066E0
6.636492708E0,-3.717470847E0,1.916239573E0,1.891271232E0,4.590040356E0
6.646436708E0,-3.168591252E0,1.284131003E0,3.040044601E0,4.575022856E0
6.656380708E0,-2.329055191E0,7.062980425E-1,2.992664028E0,3.857381624E0
6.666323708E0,-1.253854997E0,6.457284898E-1,3.275248266E0,3.566001800E0
6.676267708E0,-5.771591785E-1,1.071087701E0,4.452155952E0,4.615412679E0
6.686210708E0,-7.783136661E-1,1.718242911E0,5.669625773E0,5.975180940E0
6.696154708E0,-1.787933682E0,2.300828488E0,6.223415567E0,6.871784332E0
6.706097708E0,-2.767333679E0,2.362561637E0,6.081426460E0,7.086859740E0
6.716041708E0,-2.434907921E0,2.181932375E0,5.349605906E0,6.269600372E0
6.725984708E0,-8.962929364E-1,1.558331503E0,4.504704294E0,4.850164830E0
6.735928708E0,8.921814667E-1,5.264616627E-1,3.830951269E0,3.968543471E0
6.745871708E0,2.200355928E0,-8.317319280E-1,3.821517956E0,4.487465175E0
6.755815708E0,2.598431885E0,-2.157023236E0,4.334729244E0,5.494949965E0
6.765759708E0,1.804736972E0,-2.356060703E0,5.074687368E0,5.878822114E0
6.775702708E0,2.715289074E-1,-1.269884262E0,6.199146699E0,6.333699849E0
6.785643958E0,-1.060374725E0,7.821235657E-2,7.398633993E0,7.474643583E0
6.795586958E0,-2.832657895E0,9.321040624E-1,7.920383384E0,8.463169719E0
6.805530958E0,-4.395972980E0,1.566393644E0,7.869486296E0,9.149151985E0
6.815473958E0,-5.262840242E0,2.158762783E0,7.825074939E0,9.674168800E0
6.825417958E0,-5.836564949E0,2.838255435E0,7.187488697E0,9.684068261E0
6.835360958E0,-6.305274248E0,3.536688972E0,5.452801076E0,9.055257688E0
6.845304958E0,-6.868723058E0,4.278974873E0,2.889441376E0,8.592895546E0
6.855247958E0,-6.759284230E0,4.942758395E0,2.567230265E-1,8.377630367E0
6.865191958E0,-5.326384858E0,5.294939702E0,-1.682432370E0,7.696579811E0
6.875134958E0,-3.397152187E0,4.512770528E0,-2.123726998E0,6.034563545E0
6.885078958E0,-2.020103957E0,1.664041561E0,-1.452738390E0,2.993376546E0
6.895021958E0,-2.794793665E-2,-3.103692713E0,-1.137188720E0,3.305584324E0
6.904965958E0,3.265226138E0,-1.120294827E1,-8.208087444E-1,1.169792626E1
6.914909958E0,7.181546756E0,-2.060077453E1,8.256511161E-1,2.183227484E1
6.924852958E0,9.529193316E0,-2.272249520E1,1.364798313E0,2.467751989E1
6.934796958E0,6.946113296E0,-1.637619163E1,-5.859233142E-1,1.779807429E1
6.944739958E0,2.831856534E0,-1.067709530E1,-1.623563333E0,1.116493320E1
6.954683958E0,1.322070954E0,-7.422027533E0,-1.843181245E0,7.760907254E0
6.964626958E0,1.911671728E0,-4.390850819E0,-1.143037982E0,4.923473930E0
6.974570958E0,1.993775115E0,-2.009842386E0,1.861200902E-1,2.837119369E0
6.984513958E0,7.765766045E-1,-1.168163175E0,-7.558900326E-2,1.404774047E0
6.994457958E0,-1.750785882E0,-1.471007431E0,-2.060072308E0,3.077825853E0
7.004400958E0,-5.483635783E0,-1.813479436E0,-5.106869273E0,7.709674626E0
7.014344958E0,-8.923401893E0,-2.021222822E0,-8.352629446E0,1.238865859E1
7.024287958E0,-7.118634224E0,-8.567246819E-1,-9.420788276E0,1.183892656E1
7.034231958E0,-6.157846645E0,2.160452628E-1,-9.318362015E0,1.117128558E1
7.044174958E0,-5.366325434E0,1.182594688E0,-8.567007083E0,1.017789709E1
7.054118958E0,-3.012387856E0,1.376522273E0,-6.236194072E0,7.061119647E0
7.064062958E0,-9.093665797E-1,1.961968308E0,-4.012706705E0,4.558298183E0
7.074005958E0,7.955554971E-1,2.636485564E0,-2.595401857E0,3.784187559E0
7.083949958E0,2.792408586E0,3.276402506E0,-1.670274985E0,4.617594354E0
7.093892958E0,4.322693335E0,3.664569333E0,-1.727945781E0,5.924571097E0
7.103836958E0,5.281280606E0,3.574666053E0,-2.064649216E0,6.703203609E0
7.113779958E0,5.888778831E0,3.060750761E0,-2.145624089E0,6.974927532E0
7.123723958E0,6.343148417E0,2.420418082E0,-2.762675787E0,7.329824898E0
7.133666958E0,6.530946951E0,1.995499751E0,-3.936266055E0,7.882225434E0
7.143610958E0,6.663261255E0,1.865631337E0,-4.658481680E0,8.341527582E0
7.153553958E0,6.887692595E0,2.185234298E0,-4.481561892E0,8.502938033E0
7.163497958E0,6.921708187E0,2.602999730E0,-3.825645506E0,8.325936305E0
7.173440958E0,6.675533391E0,2.894821984E0,-3.034419580E0,7.883555198E0
7.183384958E0,6.228627191E0,3.005562986E0,-2.224295160E0,7.264757016E0
7.193328958E0,5.745803883E0,3.291359099E0,-1.487052483E0,6.786651020E0
7.203271958E0,5.084889590E0,3.776853415E0,-8.299090585E-1,6.388229246E0
7.213215958E0,3.998755249E0,3.964867126E0,-7.356680220E-1,5.679033571E0
7.223158958E0,2.576464188E0,3.698800102E0,-5.526414013E-1,4.541442769E0
7.233102958E0,4.866927025E-1,2.972038559E0,2.822743356E-3,3.011625965E0
7.243045958E0,-2.096774988E0,1.972107380E0,1.050227467E0,3.064090501E0
7.252989958E0,-4.785934025E0,8.348537564E-1,3.137502191E0,5.783257324E0
7.262932958E0,-7.339777089E0,-3.752976894E-1,5.811903148E0,9.369706200E0
7.272876958E0,-1.121372001E1,-2.551029677E0,8.034438003E0,1.402880832E1
7.282819958E0,-1.601472143E1,-6.284445881E0,9.578321621E0,1.969034809E1
7.292763958E0,-1.882109259E1,-8.841056140E0,9.968066611E0,2.305992523E1
7.302706958E0,-1.828091394E1,-7.380333962E0,9.662054334E0,2.195487276E1
7.312650958E0,-1.311319036E1,-2.840338213E0,7.954142284E0,1.559780952E1
7.322593958E0,-6.016758009E0,-3.621589959E-2,4.713066608E0,7.643015464E0
7.332537958E0,8.159806985E-1,6.359805965E-1,-2.065406138E0,2.310021284E0
7.342481958E0,3.983408354E0,-1.283001321E0,-1.207233919E1,1.277712832E1
7.352424958E0,5.698295841E0,-7.097877778E0,-9.952693112E0,1.348727343E1
7.362368958E0,7.103639624E0,-1.047342275E1,-6.032354288E0,1.401940007E1
7.372311958E0,5.701349841E0,-1.016768821E1,-1.536051857E0,1.175783692E1
7.382255958E0,2.479391052E0,-8.814338458E0,-9.308217680E-1,9.203606445E0
7.392198958E0,1.168713398E0,-5.827676012E0,-3.321814907E0,6.808975913E0
7.402142958E0,1.197776399E0,-1.426359261E0,-2.783088709E0,3.348843353E0
7.412085958E0,5.608476761E-1,1.394815872E0,-7.474849525E-1,1.678926796E0
7.422029958E0,1.846295180E0,2.228625900E0,-2.845594275E-1,2.908015365E0
7.431972958E0,3.116337317E0,1.759340651E0,-8.685009742E-1,3.682544194E0
7.441916958E0,3.316732799E0,1.005747989E0,-2.062505334E0,4.033134480E0
7.451859958E0,3.356737987E0,-1.169589311E-1,-3.206428877E0,4.643549875E0
7.461803958E0,2.880206868E0,-1.598660334E0,-3.042706838E0,4.484347374E0
7.471746958E0,1.459981921E0,-3.006336572E0,-2.973437798E0,4.473358820E0
7.481690958E0,3.186089337E-1,-3.927467750E0,-3.435976530E0,5.228044500E0
7.491634958E0,6.677488115E-1,-4.234032004E0,-3.066696795E0,5.270440657E0
7.501577958E0,1.278781385E0,-3.528482405E0,-1.956567235E0,4.232449085E0
7.511521958E0,1.951396542E0,-2.175722047E0,-1.599319900E0,3.331597070E0
7.521464958E0,2.126973518E0,-1.031280441E0,-1.324798680E0,2.709731949E0
7.531408958E0,1.883165090E0,-5.690790939E-1,-6.555620447E-1,2.073625657E0
7.541351958E0,1.145167538E0,-5.676038414E-1,2.831660360E-2,1.278430538E0
7.551295958E0,1.921072005E0,-4.558313906E-2,9.305332080E-1,2.135061479E0
7.561238958E0,2.812751926E0,4.551770872E-1,2.040027760E0,3.504350559E0
7.571182958E0,3.628244675E0,9.785274464E-1,4.560844581E0,5.909566708E0
7.581125958E0,6.172326690E0,1.027230660E0,5.803491343E0,8.534244628E0
7.591069958E0,7.520328584E0,4.156481552E-1,2.138309515E0,7.829461857E0
7.601012958E0,6.424009563E0,-6.093623167E-1,-4.554355049E0,7.898187843E0
7.610956958E0,3.734032793E0,-6.552465874E-1,-4.474734975E0,5.864776388E0
7.620899958E0,2.592742251E0,3.727968353E-1,-1.626845376E0,3.083490837E0
7.630843958E0,8.637676531E-1,1.164090005E0,7.047765970E-1,1.611803384E0
7.640787958E0,-1.158100994E0,1.654321150E0,2.007859595E0,2.847714265E0
7.650730958E0,-2.887983665E0,1.972165267E0,2.270346953E0,4.169455693E0
7.660674958E0,-3.039891112E0,2.571538201E0,1.963800825E0,4.439623900E0
7.670617958E0,-2.355792169E0,2.985274317E0,1.148035597E0,3.972355123E0
7.680561958E0,-1.893598716E0,3.077294288E0,-1.726039588E-1,3.617353779E0
7.690504958E0,-1.516252016E0,2.830048283E0,-6.397245687E-1,3.273750293E0
7.700448958E0,-1.395219330E0,2.279520650E0,-4.588672650E-1,2.711717267E0
7.710391958E0,-2.150519963E0,1.825704210E0,-3.909799218E-2,2.821251606E0
7.720335958E0,-3.595939393E0,1.464198348E0,5.757655312E-1,3.925068518E0
7.730278958E0,-4.763165552E0,1.341718476E0,1.058698035E0,5.060513420E0
7.740222958E0,-4.885155135E0,1.417185565E0,1.616484840E0,5.337244500E0
7.750165958E0,-4.149682117E0,1.384614819E0,1.954379207E0,4.791306498E0
7.760109958E0,-3.253679349E0,1.124335955E0,1.661243376E0,3.822340932E0
7.770052958E0,-2.239785165E0,7.401253545E-1,1.024606429E0,2.571816763E0
7.779996958E0,-8.860107538E-1,4.974401772E-1,1.220923771E0,1.588432133E0
7.789939750E0,4.636016459E-1,4.552390677E-1,2.786608148E0,2.861355285E0
7.799882750E0,1.127165422E0,6.828664953E-1,4.712624266E0,4.893427839E0
7.809826750E0,1.178174924E0,9.469092125E-1,6.060997458E0,6.246632965E0
7.819769750E0,4.755733083E-1,1.265928621E0,6.137966697E0,6.285171470E0
7.829713750E0,7.619477481E-2,1.520698823E0,5.205045778E0,5.423175463E0
7.839656750E0,6.390459993E-1,1.199676159E0,4.034977580E0,4.257774859E0
7.849600750E0,1.587493176E0,1.200369054E-1,3.346788365E0,3.706148378E0
7.859543750E0,1.867792176E0,-1.232291928E0,2.991650705E0,3.735928927E0
7.869487750E0,1.495619677E0,-2.827648585E0,3.046537934E0,4.417450410E0
7.879430750E0,4.296020968E-1,-3.895959443E0,3.723293504E0,5.406105110E0
7.889374750E0,-1.196859701E0,-3.072144061E0,4.613532672E0,5.670557820E0
7.899317750E0,-2.860482455E0,-1.017551764E0,5.405280170E0,6.199582662E0
7.909261750E0,-3.813602580E0,3.472474265E-1,6.370391765E0,7.432767765E0
7.919204750E0,-4.098781520E0,9.255341309E-1,7.137251174E0,8.282329244E0
7.929148750E0,-3.920501085E0,1.672048738E0,7.398448636E0,8.538332270E0
7.939092750E0,-4.184187414E0,2.298315940E0,7.075629122E0,8.535467647E0
7.949035750E0,-5.056463935E0,2.717232689E0,6.237481045E0,8.476871522E0
7.958979750E0,-5.641757943E0,3.153567123E0,4.842523085E0,8.076165434E0
7.968922750E0,-5.554184779E0,3.727294169E0,3.214066510E0,7.421045338E0
7.978866750E0,-4.957996824E0,4.467832337E0,1.139656245E0,6.770677562E0
7.988809750E0,-3.982453796E0,4.621803558E0,-7.962040995E-1,6.152637430E0
7.998753750E0,-2.242387907E0,3.811644933E0,-1.500268652E0,4.669876513E0
8.008696750E0,-1.010461722E-1,2.369334467E0,-1.116328631E0,2.621096290E0
8.018640750E0,1.813567144E0,1.253993869E-1,-8.268880945E-1,1.997121607E0
8.028583750E0,3.526371560E0,-3.701667577E0,-5.920652296E-1,5.146666928E0
8.038527750E0,5.538221880E0,-8.739505792E0,-2.073294032E-1,1.034861578E1
8.048470750E0,7.846610234E0,-1.264636035E1,9.562764519E-1,1.491355715E1
8.058414750E0,8.866074622E0,-1.473411572E1,1.072221330E0,1.722936748E1
8.068357750E0,7.706663559E0,-1.402518994E1,7.288808665E-1,1.601967176E1
8.078301750E0,5.103503616E0,-1.182070544E1,1.737965277E0,1.299212644E1
8.088244750E0,2.487766019E0,-9.740676581E0,2.555631728E0,1.037309084E1
8.098188750E0,3.751105785E-2,-7.385322806E0,2.241352657E0,7.718034838E0
8.108132750E0,-9.314421576E-1,-4.208130008E0,4.250025308E-1,4.330885569E0
8.118075750E0,-1.514100533E0,-2.307000225E0,-2.900816549E0,4.003684192E0
8.128019750E0,-4.645694405E0,-1.762892250E0,-5.718385119E0,7.575631588E0
8.137962750E0,-8.462628436E0,-1.088507141E0,-7.689564546E0,1.148609293E1
8.147906750E0,-7.210995673E0,-3.914038450E-1,-1.013009763E1,1.244068059E1
8.157849750E0,-5.123842571E0,6.911765581E-1,-1.024974570E1,1.147992921E1
8.167793750E0,-4.386816825E0,1.577496922E0,-9.675806985E0,1.074029326E1
8.177736750E0,-3.019918777E0,1.710826303E0,-8.422159857E0,9.109314612E0
8.187680750E0,-9.630638999E-1,1.560944624E0,-5.941224847E0,6.217892961E0
8.197623750E0,7.601669785E-1,1.776201097E0,-2.821352888E0,3.419470177E0
8.207567750E0,1.938590555E0,2.158800205E0,-6.154194474E-1,2.966023055E0
8.217510750E0,2.423646330E0,2.704108613E0,3.816764170E-1,3.651293170E0
8.227454750E0,3.052282823E0,3.265880442E0,8.267851835E-1,4.545984957E0
8.237397750E0,3.559008964E0,3.237902684E0,9.298271567E-1,4.900524170E0
8.247341750E0,4.153610569E0,3.017215317E0,1.385486054E-1,5.135685421E0
8.257284750E0,5.150689477E0,2.764567069E0,-1.352686683E0,6.000182866E0
8.267228750E0,5.490979886E0,2.228751031E0,-3.225497816E0,6.747001366E0
8.277172750E0,5.465379606E0,1.893635407E0,-4.796894923E0,7.514414827E0
8.287115750E0,5.622080308E0,1.891939130E0,-5.532644806E0,8.111558371E0
8.297059750E0,5.637088941E0,1.870948795E0,-5.436109614E0,8.051615295E0
8.307002750E0,5.567787741E0,1.845018148E0,-4.929469428E0,7.661854941E0
8.316946750E0,5.886104314E0,2.024100822E0,-4.154798139E0,7.483685971E0
8.326889750E0,6.177458206E0,2.151005282E0,-3.180963960E0,7.273674816E0
8.336833750E0,6.209539540E0,2.439598703E0,-2.075479428E0,6.986962000E0
8.346776750E0,5.719838737E0,2.812202581E0,-1.704092942E0,6.597648921E0
8.356720750E0,5.393194560E0,2.877908328E0,-1.855559508E0,6.388427427E0
8.366663750E0,5.063693433E0,2.568163188E0,-1.176554807E0,5.798338948E0
8.376607750E0,2.339749895E0,1.971272982E0,4.656430185E-1,3.094700335E0
8.386550750E0,-1.023987794E0,1.533298404E0,3.134242076E0,3.636348221E0
8.396494750E0,-4.269429293E0,1.025809786E0,5.500846478E0,7.038439044E0
8.406437750E0,-7.436995820E0,4.106967330E-2,7.126225664E0,1.030017892E1
8.416381750E0,-1.124801276E1,-1.522826625E0,8.025682967E0,1.390138048E1
8.426324750E0,-1.513251809E1,-3.838653806E0,8.069379795E0,1.757393687E1
8.436268750E0,-1.793140949E1,-6.761175220E0,7.781202695E0,2.068323118E1
8.446212750E0,-1.805467230E1,-7.587886729E0,8.010735145E0,2.115937368E1
8.456155750E0,-1.330511001E1,-4.830222883E0,7.605623088E0,1.606868096E1
8.466099750E0,-7.488588728E0,-1.572693434E0,6.104377366E0,9.788551926E0
8.476042750E0,-2.213899980E0,8.608522314E-1,1.933505232E0,3.062819317E0
8.485986750E0,1.409061151E0,2.800623924E0,-8.873123440E0,9.410699617E0
8.495929750E0,5.012910365E0,9.669920594E-1,-1.007820009E1,1.129754225E1
8.505873750E0,6.188113003E0,-3.761462958E0,-7.322476932E0,1.029854429E1
8.515816750E0,6.650590339E0,-6.830298665E0,-4.001710432E0,1.033910142E1
8.525760750E0,5.105723804E0,-7.986386755E0,-1.184724829E0,9.552714895E0
8.535703750E0,1.976188152E0,-8.219809942E0,-8.716982317E-1,8.498850093E0
8.545647750E0,-2.702509984E-1,-7.675137126E0,-2.276082487E0,8.010075967E0
8.555590750E0,-1.670759427E0,-5.897143857E0,-2.489128421E0,6.615398932E0
8.565534750E0,-1.737226481E0,-2.593944147E0,-1.478807616E0,3.454471602E0
8.575477750E0,-1.287318613E0,1.163085453E0,-1.042243971E0,2.023914394E0
8.585421750E0,5.366954595E-2,3.282393563E0,-1.703187793E0,3.698355930E0
8.595364750E0,2.166025025E0,3.766468760E0,-2.132873651E0,4.840155094E0
8.605308750E0,3.857740580E0,2.496095670E0,-2.415365795E0,5.191016076E0
8.615251750E0,5.023331273E0,2.688596535E-1,-2.861950107E0,5.787650732E0
8.625195750E0,4.752460177E0,-1.864074808E0,-2.311962757E0,5.604089972E0
8.635139750E0,4.045848724E0,-3.037438497E0,-1.555863978E0,5.292979996E0
8.645082750E0,3.384038344E0,-3.449360806E0,-9.072800007E-1,4.916600705E0
8.655026750E0,2.924751249E0,-3.729738890E0,-9.665473786E-1,4.837286005E0
8.664969750E0,3.191840366E0,-3.710913779E0,-1.081854764E0,5.012896940E0
8.674913750E0,3.357517713E0,-3.189284840E0,-7.934849980E-1,4.698306230E0
8.684856750E0,2.520176259E0,-2.453680553E0,-6.341144577E-1,3.574064601E0
8.694800750E0,1.557865480E0,-1.596292797E0,-5.593206757E-1,2.299551079E0
8.704743750E0,3.713800550E-1,-4.311117017E-1,7.143748015E-2,5.734838778E-1
8.714687750E0,1.631546537E0,3.630705768E-1,1.267125546E0,2.097467877E0
8.724630750E0,1.483063220E0,3.692487448E-1,2.678424718E0,3.083793139E0
8.734574750E0,1.836052027E0,5.464684957E-1,3.075747700E0,3.623525738E0
8.744517750E0,3.572030421E0,6.935394180E-1,2.079020502E0,4.190790438E0
8.754461750E0,5.510377439E0,5.243087178E-1,-5.992206135E-1,5.567604916E0
8.764404750E0,6.622662867E0,-1.546161693E-1,-4.523787560E0,8.021734444E0
8.774348750E0,5.386625798E0,-3.894918054E-1,-4.380460902E0,6.953839160E0
8.784291750E0,3.713491817E0,1.243854797E-1,-1.378431973E0,3.963025098E0
8.794236583E0,1.852048840E0,7.513368058E-1,1.419900135E0,2.451674590E0
8.804180583E0,-2.876565515E-1,1.122862456E0,2.941381023E0,3.161532652E0
8.814123583E0,-1.650967625E0,1.628871143E0,3.004209940E0,3.795285584E0
8.824067583E0,-2.662720851E0,1.954165199E0,2.038236173E0,3.881140381E0
8.834010583E0,-3.159747046E0,2.156798118E0,6.620743811E-1,3.882540663E0
8.843954583E0,-2.810813867E0,2.412326705E0,-3.423834202E-1,3.719841547E0
8.853897583E0,-2.427507685E0,2.420512222E0,-9.391577049E-1,3.554390267E0
8.863841583E0,-2.241670015E0,2.068667130E0,-1.396607166E0,3.354844218E0
8.873784583E0,-2.016886673E0,1.498031507E0,-1.674607626E0,3.019311337E0
8.883728583E0,-2.045246400E0,7.921392614E-1,-1.690755735E0,2.769327067E0
8.893671583E0,-2.648546031E0,3.559819973E-1,-1.311318071E0,2.976755674E0
8.903615583E0,-3.233993528E0,2.563577217E-1,-5.900442857E-1,3.297360411E0
8.913558583E0,-3.149362391E0,4.715241480E-1,2.891635251E-1,3.197566893E0
8.923502583E0,-2.927531600E0,7.377759433E-1,1.412850439E0,3.333301813E0
8.933445583E0,-2.592535845E0,7.734498060E-1,2.305712668E0,3.554683898E0
8.943389583E0,-2.121130688E0,8.406881082E-1,2.853274593E0,3.653372112E0
8.953332583E0,-1.373401468E0,1.182629187E0,3.611538010E0,4.040798211E0
8.963276583E0,-3.109713737E-1,1.686024753E0,5.013195124E0,5.298255186E0
8.973219583E0,2.390023451E-1,2.284258064E0,6.365233351E0,6.766916036E0
8.983163583E0,5.014918957E-1,2.799950325E0,6.841870304E0,7.409615726E0
8.993107583E0,-2.568042845E-1,2.395767390E0,6.392577855E0,6.831595821E0
9.003050583E0,-3.996482728E-1,1.769213090E0,5.082223844E0,5.396186885E0
9.012994583E0,8.276147207E-2,1.164819737E0,4.088149236E0,4.251660694E0
9.022937583E0,8.082252440E-1,5.544856131E-2,3.677740186E0,3.765909646E0
9.032881583E0,1.425951564E0,-1.447992205E0,3.724006280E0,4.242433507E0
9.042824583E0,1.793754877E0,-2.942811837E0,4.003719535E0,5.282751951E0
9.052768583E0,1.449501079E0,-3.811301116E0,4.363309264E0,5.972063070E0
9.062711583E0,5.564976400E-1,-3.449238015E0,4.548002926E0,5.735090507E0
9.072655583E0,-3.421773058E-1,-2.193784096E0,5.115104492E0,5.576205514E0
9.082598583E0,-1.743847138E0,-1.168134524E0,6.173298497E0,6.520364671E0
9.092542583E0,-3.327265389E0,-4.625463331E-1,6.678071668E0,7.475378604E0
9.102485583E0,-3.996652590E0,3.395507365E-1,6.535931118E0,7.668567154E0
9.112429583E0,-4.362572223E0,1.143824725E0,6.095856219E0,7.582864527E0
9.122372583E0,-4.933428578E0,1.968772128E0,5.592030298E0,7.712689808E0
9.132316583E0,-5.586180158E0,2.746022040E0,4.624305582E0,7.754369602E0
9.142259583E0,-5.951233526E0,3.601527577E0,3.192898419E0,7.653938965E0
9.152203583E0,-5.866643026E0,4.554209746E0,1.326466599E0,7.544391324E0
9.162146583E0,-5.144227719E0,5.314054250E0,-9.184220164E-1,7.452902146E0
9.172090583E0,-3.716844610E0,5.346594590E0,-2.421158193E0,6.947158740E0
9.182033583E0,-1.875405250E0,4.377772352E0,-2.110764890E0,5.209353515E0
9.191977583E0,-7.229058892E-3,2.442167385E0,-9.375864118E-1,2.615970580E0
9.201921583E0,2.356599816E0,-7.054531199E-1,-3.665037695E-1,2.487076961E0
9.211864583E0,5.303622233E0,-6.212726857E0,-5.031040826E-1,8.184100287E0
9.221808583E0,7.760374328E0,-1.217055721E1,5.923071581E-1,1.444633865E1
9.231751583E0,9.430335610E0,-1.546212213E1,1.862797484E0,1.820655006E1
9.241695583E0,8.941961541E0,-1.448894898E1,1.381773365E0,1.708208466E1
9.251638583E0,5.415312822E0,-1.170206543E1,9.599987894E-1,1.293002498E1
9.261582583E0,2.613281474E0,-9.684940921E0,1.756244843E0,1.018389496E1
9.271525583E0,1.590485635E0,-7.811495950E0,2.796821772E0,8.448155157E0
9.281469583E0,-3.046726799E-1,-5.905289614E0,1.038609341E0,6.003663900E0
9.291412583E0,-7.769601819E-1,-3.481015878E0,-2.166322940E0,4.173019740E0
9.301356583E0,-5.410687090E0,-2.421181144E0,-5.064867554E0,7.796828602E0
9.311299583E0,-1.015453432E1,-1.885697227E0,-7.098672999E0,1.253242114E1
9.321243583E0,-7.431562003E0,-1.139376748E-1,-8.913675050E0,1.160580452E1
9.331186583E0,-4.986645257E0,8.912390417E-1,-9.884739110E0,1.110716009E1
9.341130583E0,-4.750653095E0,1.446625126E0,-9.551858293E0,1.076565957E1
9.351073583E0,-3.634512013E0,1.931818895E0,-8.192171323E0,9.168057199E0
9.361017583E0,-1.912040688E0,2.315467578E0,-6.187729425E0,6.877883769E0
9.370960583E0,-7.929990944E-1,2.864273205E0,-4.134901233E0,5.092181926E0
9.380904583E0,1.173612195E0,3.108160570E0,-2.213979210E0,3.992459349E0
9.390848583E0,2.869408523E0,3.248414224E0,-4.898235941E-1,4.361837616E0
9.400791583E0,3.807015692E0,3.412790565E0,5.537254751E-1,5.142676329E0
9.410735583E0,4.133516613E0,3.303167551E0,7.837870985E-1,5.348943604E0
9.420678583E0,4.782563690E0,2.956707745E0,9.471261442E-2,5.623522616E0
9.430622583E0,5.144195559E0,2.368894172E0,-1.270107041E0,5.804100227E0
9.440565583E0,5.851088848E0,2.140901293E0,-2.691922431E0,6.787130869E0
9.450509583E0,6.611081872E0,2.306714296E0,-3.851510957E0,7.991337248E0
9.460452583E0,6.408851241E0,2.302581484E0,-4.493675568E0,8.158944529E0
9.470396583E0,5.795401136E0,2.192067938E0,-4.326519753E0,7.557156168E0
9.480339583E0,5.679401733E0,2.158479778E0,-3.437000377E0,6.980516498E0
9.490283583E0,5.752369137E0,2.019521867E0,-2.554053272E0,6.609947607E0
9.500226583E0,5.727783934E0,1.921309109E0,-1.827910657E0,6.311908971E0
9.510170583E0,5.460037590E0,2.037688581E0,-1.147845270E0,5.939842928E0
9.520113583E0,5.017581121E0,2.360129780E0,-9.892854461E-1,5.632496656E0
9.530057583E0,4.342100244E0,2.478663951E0,-1.304213558E0,5.167067109E0
9.540000583E0,3.306715057E0,1.946890678E0,-1.152891125E0,4.006732550E0
9.549944583E0,1.140868080E0,1.363162555E0,-6.970670432E-2,1.778946641E0
9.559887583E0,-1.960390729E0,1.272460545E0,2.199084597E0,3.209090325E0
9.569831583E0,-4.981888547E0,1.280551338E0,4.629043873E0,6.920048584E0
9.579774583E0,-7.793033951E0,1.103908122E0,6.284587383E0,1.007204199E1
9.589718583E0,-1.085496760E1,1.757661331E-1,7.678326198E0,1.329728952E1
9.599661583E0,-1.524186571E1,-2.045801008E0,8.443462433E0,1.754399697E1
9.609605583E0,-1.860105251E1,-4.656655887E0,8.765434100E0,2.108355837E1
9.619549583E0,-1.878150811E1,-5.322592939E0,8.645191957E0,2.134980998E1
9.629492583E0,-1.275261712E1,-3.081813601E0,7.777314296E0,1.525166995E1
9.639436583E0,-5.552327703E0,-9.844927758E-1,5.710273862E0,8.025259904E0
9.649379583E0,-4.213909981E-1,6.451472765E-1,1.391765087E0,1.590847396E0
9.659323583E0,2.147826151E0,2.098047634E0,-1.037692732E1,1.080257292E1
9.669266583E0,5.158568015E0,3.774705148E-1,-1.099106389E1,1.214729572E1
9.679210583E0,6.429566756E0,-3.789378735E0,-7.213106518E0,1.037919195E1
9.689153583E0,6.599534206E0,-6.066969219E0,-3.232712696E0,9.529553957E0
9.699097583E0,4.332061159E0,-7.247679350E0,-5.567888314E-1,8.462010615E0
9.709040583E0,9.380769932E-1,-8.417319531E0,-8.912305632E-1,8.516193308E0
9.718984583E0,-1.889435060E0,-9.630553629E0,-2.948601165E0,1.024752540E1
9.728927583E0,-4.665544240E0,-9.014243066E0,-3.055212863E0,1.059991541E1
9.738871583E0,-4.127991579E0,-4.145964750E0,-5.644545311E-1,5.877750173E0
9.748814583E0,-2.564184450E0,7.207090902E-1,-1.132839561E-2,2.663567499E0
9.758758583E0,1.324520060E0,3.751422120E0,-1.784896492E0,4.360433097E0
9.768701583E0,4.958311404E0,4.663578406E0,-3.156526984E0,7.503164541E0
9.778645583E0,6.432070534E0,3.218546062E0,-3.931997880E0,8.197022474E0
9.788588333E0,6.465083914E0,-8.409874856E-2,-3.858302498E0,7.529334683E0
9.798532333E0,6.283744215E0,-2.887105413E0,-2.281551680E0,7.281915757E0
9.808475333E0,5.532159487E0,-4.853793009E0,-1.113025978E0,7.443313912E0
9.818419333E0,3.865562985E0,-6.160542796E0,-1.092439101E0,7.354474007E0
9.828362333E0,3.118255788E0,-6.552179945E0,-1.412079191E0,7.392465680E0
9.838306333E0,4.000955848E0,-5.703716794E0,-1.264667084E0,7.080919135E0
9.848250333E0,3.637566891E0,-4.042205324E0,-7.481404254E-1,5.489173969E0
9.858193333E0,3.101632739E0,-2.667373481E0,-3.064642668E-1,4.102307555E0
9.868137333E0,1.710756429E0,-1.693069478E0,6.341711757E-1,2.489044977E0
9.878080333E0,1.086491313E0,-6.869852740E-1,1.935749685E0,2.323690811E0
9.888024333E0,1.178812416E0,2.767674279E-1,2.939008515E0,3.178674248E0
9.897967333E0,1.959326244E0,1.082906678E0,2.688462049E0,3.498496018E0
9.907911333E0,3.116637864E0,1.471406211E0,2.241814295E0,4.111471652E0
9.917854333E0,5.046082789E0,1.492946768E0,9.503868440E-1,5.347436462E0
9.927798333E0,6.928347116E0,9.476120478E-1,-3.249095717E0,7.710809641E0
9.937741333E0,6.856349180E0,-2.941400903E-1,-6.305308746E0,9.319493594E0
9.947685333E0,5.840080880E0,-2.426781607E-1,-3.596080019E0,6.862742081E0
9.957628333E0,4.535432582E0,9.165229869E-1,2.775866228E-1,4.635430662E0
9.967572333E0,2.180742905E0,1.673461425E0,3.197285585E0,4.216485251E0
9.977515333E0,-9.418709591E-1,1.828601505E0,4.528277344E0,4.973550047E0
9.987459333E0,-3.473064249E0,1.867719378E0,4.102878957E0,5.690708804E0
9.997402333E0,-4.448710772E0,2.129320298E0,2.728413734E0,5.636423864E0
1.000734633E1,-3.968830369E0,2.505462325E0,1.396458939E0,4.896841178E0
1.001728933E1,-3.416265566E0,2.534599586E0,-1.660176551E-1,4.257067927E0
1.002723333E1,-2.705839097E0,2.507026455E0,-8.777655950E-1,3.791730384E0
1.003717633E1,-2.211552908E0,2.317600642E0,-1.115750488E0,3.392217291E0
1.004712033E1,-2.476378275E0,1.931164591E0,-1.088729335E0,3.323729472E0
1.005706333E1,-3.477867737E0,1.410717959E0,-9.390261425E-1,3.868780073E0
1.006700733E1,-4.215905343E0,1.197914978E0,-3.475685848E-1,4.396551157E0
1.007695033E1,-4.114305878E0,1.125928152E0,6.285020077E-1,4.311640272E0
1.008689433E1,-3.367232862E0,9.694975913E-1,1.459348667E0,3.795771497E0
1.009683733E1,-2.674026735E0,7.967228937E-1,1.549581876E0,3.191612498E0
1.010678133E1,-1.822133023E0,6.392567915E-1,1.809393402E0,2.646265762E0
1.011672533E1,-7.533225203E-1,8.564048392E-1,2.595034652E0,2.834630296E0
1.012666833E1,-1.156200649E-1,1.313679323E0,3.745895916E0,3.971253905E0
1.013661233E1,4.485157929E-2,1.914189540E0,5.280081342E0,5.616528487E0
1.014655533E1,-3.833531061E-1,2.501787350E0,6.430343851E0,6.910515292E0
1.015649933E1,-9.483678004E-1,2.916798159E0,6.775320804E0,7.437209489E0
1.016644233E1,-8.387725604E-1,2.735509331E0,6.040867249E0,6.684207344E0
1.017638633E1,2.125243619E-2,1.772962325E0,4.668273135E0,4.993658092E0
1.018632933E1,1.108055845E0,3.131441259E-1,4.050316581E0,4.210808878E0
1.019627333E1,1.571205757E0,-1.851274669E0,4.339272530E0,4.972443214E0
1.020621633E1,1.438316233E0,-3.637725935E0,4.697358356E0,6.112853596E0
1.021616033E1,8.848875037E-1,-4.186861930E0,5.410129266E0,6.897995172E0
1.022610333E1,-2.026092749E-1,-2.834971054E0,6.109445733E0,6.738207370E0
1.023604733E1,-1.632833655E0,-1.268680905E0,6.850290880E0,7.155570007E0
1.024599033E1,-2.879261373E0,-4.282816494E-1,7.659588795E0,8.194075405E0
1.025593433E1,-4.028671066E0,1.811368006E-1,7.646892736E0,8.645112470E0
1.026587733E1,-4.546088548E0,1.090320362E0,7.234862838E0,8.613881811E0
1.027582133E1,-5.036494524E0,2.105026871E0,6.683631785E0,8.629504566E0
1.028576433E1,-5.422285042E0,2.969667513E0,5.486764628E0,8.265874806E0
1.029570833E1,-5.551327245E0,3.794851729E0,3.597987088E0,7.626509353E0
1.030565133E1,-5.522370079E0,4.704648079E0,1.668746231E0,7.444125121E0
1.031559533E1,-5.104673644E0,5.498392986E0,-6.915367466E-1,7.534470221E0
1.032553833E1,-3.919947646E0,5.634802680E0,-2.530642190E0,7.315814424E0
1.033548233E1,-2.386514610E0,4.958563419E0,-2.845825240E0,6.195282436E0
1.034542533E1,-8.039898133E-1,3.130404548E0,-1.976292232E0,3.788345713E0
1.035536933E1,1.115597876E0,-1.305291492E-1,-9.630943054E-1,1.479576669E0
1.036531233E1,4.319300196E0,-5.654453418E0,-4.121269619E-1,7.127344966E0
1.037525633E1,7.660248361E0,-1.301163124E1,1.120265123E0,1.514057285E1
1.038520033E1,9.231360124E0,-1.790229152E1,2.917248394E0,2.035240501E1
1.039514333E1,9.080184456E0,-1.698767824E1,2.149836277E0,1.938176353E1
1.040508733E1,6.687620755E0,-1.330043691E1,1.391665246E0,1.495201075E1
1.041503033E1,3.965092828E0,-1.035847935E1,2.270332920E0,1.132141631E1
1.042497433E1,4.794050252E-1,-8.507043886E0,2.112483825E0,8.778508573E0
1.043491733E1,-1.354564516E0,-5.677868008E0,-1.183894524E-1,5.838411274E0
1.044486133E1,-1.862356019E0,-2.914556921E0,-2.538951668E0,4.290604568E0
1.045480433E1,-4.484101337E0,-1.754634227E0,-4.133220744E0,6.345819080E0
1.046474833E1,-1.000445617E1,-1.595539091E0,-7.383439418E0,1.253595094E1
1.047469133E1,-8.299267756E0,-9.785976130E-1,-9.700465863E0,1.280369230E1
1.048463533E1,-6.517694821E0,2.507174975E-1,-9.459001000E0,1.148981745E1
1.049457833E1,-5.706455045E0,1.144096620E0,-9.275727042E0,1.095042001E1
1.050452233E1,-3.630804878E0,1.420072920E0,-8.769470433E0,9.597028855E0
1.051446533E1,-1.776915335E0,1.484884043E0,-7.321430866E0,7.678909991E0
1.052440933E1,2.553218874E-1,1.882254387E0,-5.133685774E0,5.473828684E0
1.053435233E1,1.217097646E0,2.326947416E0,-3.264761285E0,4.189830212E0
1.054429633E1,2.256095535E0,2.652001736E0,-1.495376287E0,3.789357532E0
1.055423933E1,3.812196910E0,3.032276575E0,1.464391306E-1,4.873293642E0
1.056418333E1,4.589003895E0,2.866371771E0,7.241393593E-1,5.458884656E0
1.057412633E1,5.253133280E0,2.403497994E0,2.590831089E-1,5.782675498E0
1.058407033E1,5.851651350E0,2.064298090E0,-9.994704187E-1,6.285068914E0
1.059401333E1,6.408775812E0,1.844702983E0,-2.721621024E0,7.202954776E0
1.060395733E1,6.714110981E0,1.837148965E0,-3.820998139E0,7.940681921E0
1.061390033E1,6.917747283E0,2.087475868E0,-4.298483523E0,8.407719285E0
1.062384433E1,6.849293929E0,2.365644289E0,-4.170082760E0,8.360543670E0
1.063378733E1,6.474411392E0,2.509451880E0,-3.480913844E0,7.767374898E0
1.064373133E1,6.368862133E0,2.511207215E0,-2.422353510E0,7.261980658E0
1.065367433E1,6.452849200E0,2.492844034E0,-1.507337936E0,7.079943631E0
1.066361833E1,6.359121256E0,2.784758089E0,-1.264848640E0,7.056425643E0
1.067356233E1,5.831519387E0,3.197302542E0,-1.528500178E0,6.823904652E0
1.068350533E1,4.853548595E0,3.242379313E0,-2.200411330E0,6.237929752E0
1.069344933E1,2.343313188E0,2.676531390E0,-1.647736600E0,3.920455698E0
1.070339233E1,-5.896545687E-1,2.071525249E0,7.572074103E-1,2.283040173E0
1.071333633E1,-3.677139969E0,1.672791919E0,3.340663406E0,5.242101025E0
1.072327933E1,-6.525327192E0,9.480318779E-1,5.411378231E0,8.530045355E0
1.073322333E1,-9.695235529E0,-6.216204196E-1,6.493335906E0,1.168535045E1
1.074316633E1,-1.354712509E1,-2.709914314E0,7.409625589E0,1.567707834E1
1.075311033E1,-1.725454282E1,-4.894345204E0,8.292004344E0,1.975933195E1
1.076305333E1,-1.949432229E1,-6.485178455E0,8.217116130E0,2.212706800E1
1.077299733E1,-1.702966826E1,-5.407157126E0,7.949415979E0,1.955607741E1
1.078294033E1,-1.006386973E1,-2.876017923E0,7.548975263E0,1.290503702E1
1.079288471E1,-2.963456601E0,-8.419212860E-1,5.927662815E0,6.680426103E0
1.080282771E1,2.032724588E0,7.047245568E-1,1.038984733E0,2.389162034E0
1.081277171E1,4.177066382E0,1.250108394E0,-1.040390286E1,1.128059614E1
1.082271471E1,5.916529716E0,-1.970021678E0,-9.435736098E0,1.131014699E1
1.083265871E1,6.460495019E0,-5.714616589E0,-5.672169896E0,1.032319476E1
1.084260171E1,5.478817677E0,-6.955464748E0,-2.545299405E0,9.212734776E0
1.085254571E1,2.244740242E0,-7.288121032E0,-8.511897075E-1,7.673336357E0
1.086248871E1,-3.925648096E-1,-7.479964669E0,-2.342475574E0,7.848004230E0
1.087243271E1,-2.289465010E0,-6.411111190E0,-3.855007884E0,7.823367721E0
1.088237571E1,-2.536236221E0,-2.458129699E0,-2.392898161E0,4.266246289E0
1.089231971E1,-1.843096753E0,1.162178550E0,-6.034466887E-1,2.260931783E0
1.090226271E1,8.167879066E-1,2.814515739E0,-6.853363591E-1,3.009705510E0
1.091220671E1,4.124528273E0,3.253254549E0,-1.492007998E0,5.460905282E0
1.092214971E1,5.384789187E0,2.381259863E0,-2.281333871E0,6.314335861E0
1.093209371E1,4.859536144E0,6.971149904E-1,-2.914835833E0,5.709407043E0
1.094203671E1,4.315043423E0,-1.072999740E0,-2.863143523E0,5.288527112E0
1.095198071E1,4.730386645E0,-2.504440817E0,-2.338915205E0,5.841173337E0
1.096192371E1,3.944877834E0,-4.610516093E0,-1.692392955E0,6.299453444E0
1.097186771E1,3.259513409E0,-6.007024149E0,-1.274180211E0,6.952143698E0
1.098181071E1,3.234044691E0,-5.949899191E0,-1.387677591E0,6.912741464E0
1.099175471E1,3.425221161E0,-4.643414868E0,-1.799191472E0,6.044049271E0
1.100169771E1,4.583646383E0,-3.569567281E0,-1.178051401E0,5.927852043E0
1.101164171E1,3.451792663E0,-3.196478670E0,2.621634221E-1,4.711802005E0
1.102158471E1,2.009494769E0,-2.667267646E0,2.504717682E0,4.174445663E0
1.103152871E1,1.953772266E0,-1.449930557E0,3.343271849E0,4.134850825E0
1.104147271E1,2.068602226E0,-3.261296225E-1,2.920728950E0,3.593902238E0
1.105141571E1,3.173078990E0,5.210939187E-1,2.472207748E0,4.056079424E0
1.106135971E1,4.390159678E0,1.066205276E0,-4.802055091E-1,4.543224958E0
1.107130271E1,5.552589074E0,9.969467604E-1,-5.339759195E0,7.767765221E0
1.108124671E1,5.568729143E0,2.020113605E-1,-5.178073157E0,7.606838665E0
1.109118971E1,4.856369292E0,2.950627810E-1,-2.392226609E0,5.421635629E0
1.110113371E1,3.007725578E0,1.038373114E0,9.416815093E-1,3.318342349E0
1.111107671E1,-7.811441571E-3,1.592715470E0,2.883290105E0,3.293958928E0
1.112102071E1,-1.976359037E0,2.174622186E0,3.299459247E0,4.418303749E0
1.113096371E1,-3.114531404E0,2.716543887E0,3.118415417E0,5.177299612E0
1.114090771E1,-3.360715848E0,3.090617169E0,2.055507825E0,5.007138695E0
1.115085071E1,-2.993951000E0,3.174426481E0,8.429346085E-1,4.444239510E0
1.116079471E1,-2.389727655E0,3.125929674E0,3.877698004E-1,3.953808292E0
1.117073771E1,-1.803868075E0,2.863817707E0,2.039757326E-1,3.390722341E0
1.118068171E1,-1.933558441E0,2.360939035E0,-2.910543685E-1,3.065516925E0
1.119062471E1,-2.687253137E0,1.732603088E0,-6.604944634E-1,3.264888332E0
1.120056871E1,-3.378391981E0,1.288491272E0,-3.355793077E-1,3.631302191E0
1.121051171E1,-3.751826162E0,1.124321921E0,5.797292125E-1,3.959341523E0
1.122045571E1,-3.817230485E0,1.139128241E0,1.822358287E0,4.380622268E0
1.123039871E1,-3.774010499E0,7.663010001E-1,2.799225855E0,4.760886247E0
1.124034271E1,-3.284553232E0,3.360529321E-1,2.945732521E0,4.424766841E0
1.125028571E1,-2.361039607E0,4.026462865E-1,2.568754926E0,3.512140932E0
1.126022971E1,-1.506068067E0,8.654721165E-1,2.797637751E0,3.293032036E0
1.127017271E1,-8.957741421E-1,1.632132136E0,3.849189320E0,4.275806946E0
1.128011671E1,-1.001866461E0,2.093971540E0,4.728565530E0,5.267616652E0
1.129005971E1,-1.436249680E0,2.272036799E0,5.579462292E0,6.193170741E0
1.130000371E1,-9.702167988E-1,2.064005730E0,6.496079419E0,6.884801240E0
1.130994671E1,-1.938410918E-2,1.254520118E0,5.874792876E0,6.007277903E0
1.131989071E1,1.187809673E0,6.384060216E-1,4.062455401E0,4.280420301E0
1.132983371E1,2.265885674E0,-3.441817313E-1,3.102879950E0,3.857533271E0
1.133977771E1,2.403672241E0,-2.059667096E0,3.280631797E0,4.558773275E0
1.134972071E1,1.921014410E0,-3.561320368E0,3.970463496E0,5.669028091E0
1.135966471E1,1.047184722E0,-3.876101714E0,5.085584823E0,6.479501010E0
1.136960771E1,-3.022921322E-1,-2.908683393E0,6.018863592E0,6.691676811E0
1.137955171E1,-1.474096661E0,-1.647928389E0,6.817123718E0,7.166715058E0
1.138949471E1,-2.287935232E0,-3.750158536E-1,7.462927637E0,7.814766371E0
1.139943871E1,-2.859091988E0,7.821048546E-1,7.246619834E0,7.829405726E0
1.140938271E1,-3.754534300E0,1.583341799E0,6.458481238E0,7.636457226E0
1.141932571E1,-5.058087122E0,2.252739233E0,5.583070024E0,7.863189575E0
1.142926971E1,-6.197803009E0,2.776642154E0,4.124181533E0,7.945525602E0
1.143921271E1,-6.560071932E0,3.603164797E0,1.756922096E0,7.687920107E0
1.144915671E1,-5.890243558E0,3.949584258E0,-7.260107607E-1,7.128904307E0
1.145909971E1,-4.342772089E0,3.427283474E0,-2.493236382E0,6.068127313E0
1.146904371E1,-2.221829389E0,2.417419045E0,-2.570057686E0,4.169608756E0
1.147898671E1,-2.204476315E-1,5.084498996E-1,-1.501062119E0,1.600095605E0
1.148893071E1,1.545401409E0,-2.341577150E0,-9.305283840E-1,2.955864025E0
1.149887371E1,4.751303013E0,-7.607421691E0,-3.180318135E-1,8.974903306E0
1.150881771E1,8.085017588E0,-1.126771320E1,2.341732393E-1,1.387024539E1
1.151876071E1,8.586047371E0,-1.188946401E1,2.945306844E-1,1.466854841E1
1.152870471E1,6.178417150E0,-1.143487808E1,5.535754940E-1,1.300906303E1
1.153864771E1,3.126752962E0,-1.001605120E1,9.761368123E-1,1.053806001E1
1.154859171E1,-2.247640461E-2,-8.429409819E0,1.218241069E0,8.517016285E0
1.155853471E1,-2.135046476E0,-7.428576999E0,1.491563902E0,7.871908445E0
1.156847871E1,-3.046630612E0,-6.178138238E0,-6.406501830E-3,6.888497021E0
1.157842171E1,-4.842869241E0,-4.722639962E0,-3.284704091E0,7.519706886E0
1.158836571E1,-6.068107088E0,-2.985386583E0,-6.128260319E0,9.126337229E0
1.159830871E1,-7.780975238E0,-1.796019065E0,-7.426879553E0,1.090540233E1
1.160825271E1,-5.354678950E0,-2.786250883E-1,-8.694582803E0,1.021498843E1
1.161819571E1,-3.648122284E0,9.873596656E-1,-9.047399703E0,9.805055670E0
1.162813971E1,-2.112371266E0,2.001428243E0,-8.775473769E0,9.245364636E0
1.163808271E1,-7.787216556E-1,2.933397819E0,-6.977791171E0,7.609257507E0
1.164802671E1,-3.311000481E-1,3.355630524E0,-5.202051419E0,6.199292090E0
1.165796971E1,8.236455211E-1,3.514197072E0,-4.178593383E0,5.521649723E0
1.166791371E1,2.867176056E0,3.556123948E0,-3.027721594E0,5.480311498E0
1.167785671E1,4.109395094E0,3.120212851E0,-1.506909627E0,5.375279797E0
1.168780071E1,4.359072079E0,2.616384006E0,-3.149599788E-1,5.093738750E0
1.169774371E1,4.895340984E0,2.203134964E0,6.092798710E-2,5.368601237E0
1.170768771E1,5.347899104E0,1.808837916E0,-7.290384489E-1,5.692399889E0
1.171763071E1,5.236717222E0,1.438265362E0,-2.391563242E0,5.933918541E0
1.172757471E1,4.962942399E0,1.275676514E0,-3.876867115E0,6.425593081E0
1.173751771E1,5.055163515E0,1.437895818E0,-4.631317563E0,7.005092784E0
1.174746171E1,5.086670651E0,1.664459637E0,-4.712932414E0,7.131365658E0
1.175740471E1,4.980095791E0,1.851486338E0,-3.963286039E0,6.628498470E0
1.176734871E1,4.967099769E0,2.007544430E0,-2.875903902E0,6.080554087E0
1.177729171E1,5.073335491E0,2.157725487E0,-1.886774869E0,5.827043134E0
1.178723571E1,5.156642527E0,2.290422783E0,-1.241362129E0,5.777367793E0
1.179717958E1,5.053549098E0,2.532944824E0,-5.910593623E-1,5.683618490E0
1.180712258E1,4.137135162E0,2.609292503E0,-3.026682544E-1,4.900602288E0
1.181706658E1,2.659189718E0,2.649616072E0,-6.674596667E-2,3.754492017E0
1.182700958E1,6.721052796E-1,2.504982854E0,2.020902979E-1,2.601442887E0
1.183695358E1,-1.682906433E0,2.203813825E0,6.928704965E-1,2.858153068E0
1.184689658E1,-4.180819418E0,1.701611091E0,2.004057151E0,4.938722140E0
1.185684058E1,-7.348145624E0,7.155302113E-1,4.536759900E0,8.665415050E0
1.186678358E1,-1.088396745E1,-4.189530015E-1,6.572801321E0,1.272155597E1
1.187672758E1,-1.301633123E1,-1.695490810E0,8.059640087E0,1.540316091E1
1.188667058E1,-1.517609388E1,-4.019680095E0,8.246673805E0,1.773356373E1
1.189661458E1,-1.657707857E1,-6.194489976E0,8.347497929E0,1.956660322E1
1.190655758E1,-1.390849238E1,-5.841592385E0,8.458538309E0,1.729500599E1
1.191650158E1,-7.106084930E0,-3.276662707E0,6.981106542E0,1.048660146E1
1.192644458E1,-1.152638525E0,-2.322502363E-1,3.391761054E0,3.589785341E0
1.193638858E1,2.807372780E0,2.450980893E0,-4.256596409E0,5.657496112E0
1.194633158E1,5.375761671E0,2.046143070E0,-9.358545250E0,1.098489345E1
1.195627558E1,6.140495617E0,-1.336230864E0,-9.118777834E0,1.107444394E1
1.196621858E1,5.839547614E0,-3.986313543E0,-5.872152858E0,9.190929832E0
1.197616258E1,4.414805985E0,-5.954767583E0,-2.556402976E0,7.841234917E0
1.198610558E1,2.132751736E0,-6.891510826E0,-1.195698591E0,7.312403610E0
1.199604958E1,-7.243881583E-1,-7.437037920E0,-1.845268116E0,7.696706156E0
1.200599258E1,-2.081454406E0,-7.213153296E0,-2.912315099E0,8.052553144E0
1.201593658E1,-1.336806522E0,-4.164913822E0,-1.294350182E0,4.561677456E0
1.202587958E1,-1.196283312E0,-7.490680861E-1,1.046828772E0,1.757284052E0
1.203582358E1,2.523105714E-1,1.211397488E0,4.454733405E-1,1.315139154E0
1.204576658E1,2.869605281E0,2.427549346E0,-1.716582302E0,4.132104197E0
1.205571058E1,3.853114555E0,1.923348033E0,-2.691524236E0,5.078391689E0
1.206565358E1,3.832399917E0,1.606686223E-1,-3.244589268E0,5.023988758E0
1.207559758E1,3.019228513E0,-1.686688997E0,-3.922340911E0,5.229284732E0
1.208554058E1,2.167416662E0,-2.840004922E0,-3.753754574E0,5.182084170E0
1.209548458E1,1.663448068E0,-3.660262274E0,-2.550915656E0,4.761486120E0
1.210542758E1,2.126053751E0,-3.972605916E0,-1.523397606E0,4.756305560E0
1.211537158E1,3.100351906E0,-3.485332877E0,-7.114064625E-1,4.718667859E0
1.212531458E1,4.568188684E0,-2.697060964E0,-1.280388200E-1,5.306494100E0
1.213525858E1,5.218638800E0,-2.305361835E0,3.283854783E-1,5.714605948E0
1.214520158E1,3.672376827E0,-2.359298891E0,1.341944178E0,4.566558551E0
1.215514558E1,3.069583565E0,-2.208703267E0,1.959251107E0,4.259034901E0
1.216508858E1,2.378634464E0,-1.656402758E0,2.809156766E0,4.036450637E0
1.217503258E1,2.244684986E0,-7.964691246E-1,3.036473999E0,3.859164171E0
1.218497558E1,3.167025075E0,3.782797694E-2,2.662417088E0,4.137625350E0
1.219491958E1,3.905992096E0,2.887255687E-1,-2.815715003E-1,3.926756832E0
1.220486358E1,4.556509748E0,1.304700923E-1,-6.671630960E0,8.080189551E0
1.221480658E1,4.718479960E0,-3.290023595E-1,-6.864045285E0,8.335911070E0
1.222475058E1,4.055108959E0,-2.872321898E-1,-3.034680365E0,5.073036164E0
1.223469358E1,2.804469053E0,2.697864372E-1,3.712072697E-1,2.841764633E0
1.224463758E1,1.476369620E0,1.110809006E0,2.522474799E0,3.126730403E0
1.225458058E1,-1.778340009E-1,1.592185712E0,3.198806446E0,3.577575010E0
1.226452458E1,-1.133366687E0,2.037400314E0,2.582753161E0,3.479387011E0
1.227446758E1,-1.734586171E0,2.503768387E0,1.788043463E0,3.531960468E0
1.228441158E1,-1.702540360E0,2.811064712E0,7.548520057E-1,3.372021655E0
1.229435458E1,-1.667889175E0,2.884768866E0,2.910477903E-1,3.344914726E0
1.230429858E1,-1.510431259E0,2.765094488E0,1.115862170E-1,3.152713371E0
1.231424158E1,-1.499923666E0,2.394341254E0,-2.118715203E-1,2.833289711E0
1.232418558E1,-1.913627914E0,1.942624549E0,-3.885289152E-1,2.754399509E0
1.233412858E1,-2.409392134E0,1.536655290E0,-2.196266824E-1,2.866132553E0
1.234407258E1,-3.171636774E0,1.537753397E0,3.414580983E-1,3.541265165E0
1.235401558E1,-3.509491233E0,1.939879866E0,1.705082583E0,4.357403955E0
1.236395958E1,-3.486718375E0,2.270242288E0,3.111144989E0,5.195231296E0
1.237390258E1,-3.283205449E0,2.199217329E0,3.544214339E0,5.308243604E0
1.238384658E1,-2.986529129E0,2.074466398E0,3.373577968E0,4.960221304E0
1.239378958E1,-2.588586928E0,1.945691999E0,3.041052661E0,4.442353084E0
1.240373358E1,-1.818912961E0,1.793231698E0,3.328419921E0,4.195533751E0
1.241367658E1,-1.079950837E0,1.583171060E0,3.905049525E0,4.349958185E0
1.242362058E1,-6.103765894E-1,1.366183811E0,4.132166491E0,4.394748877E0
1.243356358E1,-4.890243163E-1,1.036733555E0,4.129035307E0,4.285194722E0
1.244350758E1,1.073022544E-2,3.243491453E-1,4.506019333E0,4.517690531E0
1.245345058E1,6.685345311E-1,-4.684040737E-1,4.689040691E0,4.759563362E0
1.246339458E1,9.552818406E-1,-9.513864255E-1,4.247329742E0,4.456176552E0
1.247333758E1,1.035553002E0,-1.176467391E0,4.038975906E0,4.332409481E0
1.248328158E1,1.035161677E0,-2.391319413E0,3.902123578E0,4.692178242E0
1.249322458E1,4.911878957E-1,-3.222312838E0,4.260855521E0,5.364648669E0
1.250316858E1,-3.406802724E-1,-3.110131082E0,5.076108241E0,5.962872904E0
1.251311158E1,-1.596471283E0,-2.007614012E0,6.066155287E0,6.586157798E0
1.252305558E1,-2.865203497E0,-1.086605626E0,7.169054765E0,7.796502362E0
1.253299858E1,-3.428866900E0,-3.138528085E-1,7.504080341E0,8.256322036E0
1.254294258E1,-3.272639238E0,8.037220109E-1,7.326810304E0,8.064631789E0
1.255288558E1,-3.547139408E0,1.744226768E0,6.822928249E0,7.885231442E0
1.256282958E1,-4.247551059E0,2.169245671E0,5.859363243E0,7.555094598E0
1.257277258E1,-4.794180353E0,2.572357396E0,4.607594824E0,7.129594511E0
1.258271658E1,-4.988063207E0,3.313080336E0,2.845193156E0,6.629660622E0
1.259265958E1,-4.921544697E0,4.041585519E0,5.630349733E-1,6.393201396E0
1.260260358E1,-4.204884219E0,4.094873534E0,-1.203146628E0,5.991377334E0
1.261254658E1,-2.588381106E0,3.521145903E0,-1.980813299E0,4.798104475E0
1.262249058E1,-4.947304313E-1,2.074375767E0,-1.243067615E0,2.468402341E0
1.263243358E1,1.405087968E0,-1.277803731E-1,-5.576939803E-1,1.517109949E0
1.264237758E1,3.325184365E0,-3.537501150E0,-4.570189601E-1,4.876436381E0
1.265232158E1,5.980352075E0,-9.603044819E0,-1.617143968E-1,1.131411650E1
1.266226458E1,8.783179815E0,-1.347076396E1,2.652125989E-1,1.608340969E1
1.267220858E1,9.849856961E0,-1.304811552E1,-4.772485721E-1,1.635545068E1
1.268215158E1,8.433124555E0,-1.069373765E1,-7.219489923E-1,1.363799197E1
1.269209558E1,5.311399029E0,-8.492317089E0,3.803577237E-1,1.002372591E1
1.270203858E1,2.749497332E0,-6.804297851E0,2.737869852E0,7.832888110E0
1.271198258E1,-6.337954921E-1,-6.026152146E0,3.925968816E0,7.220071852E0
1.272192558E1,-2.615225965E0,-4.590494642E0,1.680608477E0,5.544050213E0
1.273186958E1,-3.176697247E0,-3.309138728E0,-2.746372873E0,5.346435118E0
1.274181258E1,-6.141603665E0,-2.888739125E0,-5.951422391E0,9.026823239E0
1.275175658E1,-4.955862590E0,-1.658876131E0,-8.072127986E0,9.616220372E0
1.276169958E1,-7.531384499E0,-6.571451783E-1,-9.205376852E0,1.191186615E1
1.277164358E1,-5.789486092E0,-3.295122367E-1,-9.461876076E0,1.109746937E1
1.278158658E1,-3.707486434E0,6.193405902E-1,-8.850761349E0,9.615873069E0
1.279153383E1,-1.672834311E0,1.269121785E0,-7.739948249E0,8.019715933E0
1.280147683E1,3.170421723E-1,1.611023102E0,-5.521773663E0,5.760720055E0
1.281142083E1,1.185598403E0,2.122312995E0,-3.474830985E0,4.240790775E0
1.282136383E1,2.302601949E0,2.516536367E0,-1.681094381E0,3.802763382E0
1.283130783E1,3.291806411E0,2.943535722E0,-1.200445068E-1,4.417556188E0
1.284125083E1,3.954600292E0,3.314639788E0,8.009173939E-1,5.221797494E0
1.285119483E1,4.205095595E0,3.400640636E0,1.004885817E0,5.500634619E0
1.286113783E1,4.689944086E0,3.162912728E0,2.363099581E-1,5.661751924E0
1.287108183E1,5.456667255E0,2.670921571E0,-1.298718052E0,6.212544418E0
1.288102483E1,6.070407382E0,2.082461881E0,-2.856528861E0,7.024688634E0
1.289096883E1,6.349180405E0,1.818631418E0,-4.342506040E0,7.904231194E0
1.290091183E1,6.346558514E0,1.634965696E0,-5.233136387E0,8.386753498E0
1.291085583E1,6.020586766E0,1.487384897E0,-4.691374900E0,7.776167262E0
1.292079883E1,5.793358703E0,1.646579436E0,-3.565464582E0,6.999054693E0
1.293074283E1,5.825811335E0,1.944819594E0,-2.829292238E0,6.762196058E0
1.294068583E1,5.782358336E0,2.265119542E0,-2.263955069E0,6.609986916E0
1.295062983E1,5.360737835E0,2.740053202E0,-1.978890443E0,6.337302981E0
1.296057283E1,5.050931300E0,2.971709946E0,-2.404177440E0,6.334274715E0
1.297051683E1,4.389078236E0,2.856948398E0,-3.075157716E0,6.073117559E0
1.298045983E1,2.846146545E0,2.694077715E0,-2.429058512E0,4.610740737E0
1.299040383E1,1.169290226E0,2.265561007E0,-3.200151891E-2,2.549711828E0
1.300034683E1,-2.111634225E-2,1.909977205E0,2.999313189E0,3.555887854E0
1.301029083E1,-2.888639430E0,1.274995898E0,5.728499633E0,6.541067217E0
1.302023383E1,-5.885876273E0,1.879265875E-1,7.687872947E0,9.684123417E0
1.303017783E1,-9.136691948E0,-1.348412368E0,8.503161920E0,1.255392840E1
1.304012083E1,-1.350623317E1,-3.485101327E0,8.693626199E0,1.643603974E1
1.305006483E1,-1.765591558E1,-5.988079171E0,8.383194596E0,2.044178072E1
1.306000783E1,-1.904604901E1,-6.710935943E0,8.049150767E0,2.173884707E1
1.306995183E1,-1.586192083E1,-4.478897023E0,7.889745144E0,1.827318060E1
1.307989483E1,-9.200486240E0,-1.272652334E0,6.928972768E0,1.158789259E1
1.308983883E1,-3.125219530E0,1.324330026E0,3.517789017E0,4.888321460E0
1.309978183E1,6.607955950E-1,3.446454740E0,-8.069837047E0,8.799827899E0
1.310972583E1,4.423047635E0,3.401127124E0,-1.157695256E1,1.285133637E1
1.311966983E1,7.246761337E0,-1.472621262E-2,-8.218361002E0,1.095706276E1
1.312961283E1,8.461433265E0,-3.354364602E0,-3.899062561E0,9.902035328E0
1.313955683E1,7.418701637E0,-5.586932110E0,-7.399230409E-1,9.316567527E0
1.314949983E1,4.233194683E0,-7.351149339E0,-7.038433814E-1,8.512034383E0
1.315944383E1,1.524303924E0,-8.745423174E0,-2.079363441E0,9.117547985E0
1.316938683E1,-1.553197648E0,-9.546318056E0,-2.956406028E0,1.011360213E1
1.317933083E1,-4.116744167E0,-7.205051978E0,-1.690168090E0,8.468590480E0
1.318927383E1,-4.758522570E0,-1.951459692E0,6.172847092E-2,5.143495153E0
1.319921783E1,-4.075263142E0,1.898830073E0,-4.400497556E-2,4.496138539E0
1.320916083E1,-7.213797659E-1,3.843543248E0,-1.994156646E0,4.389746484E0
1.321910483E1,2.165954858E0,3.135724930E0,-3.692541243E0,5.306504698E0
1.322904783E1,4.679198658E0,1.001975951E0,-4.527665725E0,6.587762352E0
1.323899183E1,6.364862053E0,-1.197058945E0,-4.074434299E0,7.651498803E0
1.324893483E1,6.344397967E0,-3.060032138E0,-2.253664262E0,7.395551694E0
1.325887883E1,4.865195957E0,-4.157069782E0,-8.681469253E-1,6.457943942E0
1.326882183E1,4.112758412E0,-4.694608995E0,-1.143416589E0,6.345197938E0
1.327876583E1,4.233434711E0,-5.282419059E0,-1.547495151E0,6.944109865E0
1.328870883E1,4.900060857E0,-4.632883447E0,-1.084845030E0,6.830160626E0
1.329865283E1,5.009514887E0,-3.612979349E0,-1.900497115E-1,6.179399491E0
1.330859583E1,4.000236933E0,-2.896268585E0,1.662963042E0,5.211114402E0
1.331853983E1,2.739724588E0,-2.213989150E0,2.849573890E0,4.530773679E0
1.332848283E1,1.610623738E0,-1.270778886E0,2.926866480E0,3.574288068E0
1.333842683E1,1.319037711E0,1.219951379E-1,2.992099187E0,3.272216503E0
1.334836983E1,1.287281483E0,1.231021328E0,2.870320396E0,3.378053626E0
1.335831383E1,2.099158898E0,1.943329723E0,2.143648607E0,3.574664718E0
1.336825683E1,4.249755751E0,1.985061302E0,-2.227530132E0,5.192569962E0
1.337820083E1,5.566316582E0,7.767429578E-1,-8.023122472E0,9.795800330E0
1.338814383E1,5.541180571E0,-3.252478623E-1,-5.739093618E0,7.984213415E0
1.339808783E1,5.643432586E0,1.753369474E-1,-1.648729457E0,5.881954030E0
1.340803083E1,4.262479877E0,1.096000932E0,1.569725972E0,4.672685778E0
1.341797483E1,1.785395405E0,1.662095023E0,3.202540478E0,4.025725044E0
1.342791783E1,-7.284376475E-1,1.835493618E0,3.515599819E0,4.032257472E0
1.343786183E1,-2.540816345E0,1.899268615E0,3.105553297E0,4.439305154E0
1.344780483E1,-3.529787796E0,1.851701515E0,2.238352597E0,4.571479272E0
1.345774883E1,-3.469501248E0,1.761942662E0,7.377980165E-1,3.960584145E0
1.346769183E1,-2.432172009E0,1.840825109E0,-5.654066040E-1,3.102222170E0
1.347763583E1,-1.782338627E0,1.975874741E0,-8.416670783E-1,2.790916596E0
1.348757883E1,-1.842254608E0,1.914968973E0,-1.103899936E0,2.877429978E0
1.349752283E1,-2.803253417E0,1.672185563E0,-1.338533936E0,3.527904105E0
1.350746583E1,-3.864619245E0,1.759778607E0,-1.110527316E0,4.389233825E0
1.351740983E1,-4.722080968E0,1.960958494E0,4.631550282E-1,5.133996442E0
1.352735283E1,-4.701535606E0,1.889334195E0,1.964027259E0,5.434282274E0
1.353729683E1,-4.103758378E0,1.659449742E0,2.727463562E0,5.199390710E0
1.354723983E1,-3.220789053E0,1.263664579E0,2.725021765E0,4.404097400E0
1.355718383E1,-1.987053594E0,1.139220042E0,2.966075569E0,3.747506981E0
1.356712683E1,-7.210079560E-1,1.196515739E0,4.050460423E0,4.284592399E0
1.357707083E1,-4.588346668E-2,1.566785992E0,5.218202013E0,5.448537041E0
1.358701483E1,-3.177622569E-1,2.161020977E0,5.714031283E0,6.117281914E0
1.359695783E1,-9.890025140E-1,2.574481105E0,5.708698037E0,6.339977304E0
1.360690183E1,-8.274103971E-1,2.478107881E0,5.247128774E0,5.861568647E0
1.361684483E1,6.000047252E-1,1.658626454E0,5.076744418E0,5.374419157E0
1.362678883E1,2.070532684E0,5.888613939E-2,4.610830089E0,5.054733156E0
1.363673183E1,2.533641812E0,-2.007985311E0,4.629170465E0,5.646287722E0
1.364667583E1,1.585482757E0,-3.767147622E0,4.532019562E0,6.102815587E0
1.365661883E1,1.589653101E-1,-4.180929930E0,4.573773360E0,6.198777928E0
1.366656283E1,-1.252166029E0,-3.271305488E0,4.983443322E0,6.091310754E0
1.367650583E1,-2.670175174E0,-1.967053632E0,5.671971091E0,6.570417910E0
1.368644983E1,-3.555497711E0,-1.010332206E0,7.048068271E0,7.958492413E0
1.369639283E1,-4.154790537E0,-4.997498274E-2,7.734016249E0,8.779509625E0
1.370633683E1,-4.545930088E0,8.385696620E-1,7.305657417E0,8.645305647E0
1.371627983E1,-5.248747283E0,1.499486879E0,6.316104460E0,8.348112631E0
1.372622383E1,-5.950417839E0,2.105374780E0,5.151030369E0,8.146974242E0
1.373616683E1,-6.209372309E0,2.743343430E0,3.490489537E0,7.633200827E0
1.374611083E1,-5.758796396E0,3.589827883E0,1.274838608E0,6.904767457E0
1.375605383E1,-4.645950220E0,4.141990398E0,-1.061268471E0,6.314050100E0
1.376599783E1,-2.810420934E0,3.806547915E0,-2.365554827E0,5.290002126E0
1.377594083E1,-8.363560523E-1,2.598762252E0,-2.270176215E0,3.550599490E0
1.378588483E1,8.428986481E-1,-9.042952895E-2,-1.640734559E0,1.846798723E0
1.379582425E1,3.454591141E0,-5.149825258E0,-8.611763133E-1,6.260712802E0
1.380576825E1,7.273107136E0,-1.060112711E1,-3.207197785E-4,1.285620409E1
1.381571125E1,1.005585671E1,-1.375775934E1,1.341541890E0,1.709373952E1
1.382565525E1,1.010817993E1,-1.376787853E1,1.038496929E0,1.711164097E1
1.383559825E1,7.528511177E0,-1.165119699E1,6.786019747E-1,1.388846185E1
1.384554225E1,4.783008078E0,-9.376321955E0,1.284076332E0,1.060384042E1
1.385548525E1,1.209688639E0,-8.102576192E0,2.509642207E0,8.568161504E0
1.386542925E1,-1.666079900E0,-6.154308495E0,1.699486213E0,6.598453506E0
1.387537225E1,-1.823676688E0,-3.600355210E0,-1.154539455E0,4.197775084E0
1.388531625E1,-5.632642719E0,-3.511580443E0,-5.069946445E0,8.352377994E0
1.389525925E1,-8.398980324E0,-3.090996069E0,-7.666120135E0,1.178416417E1
1.390520325E1,-8.297935760E0,-1.057238570E0,-9.212901049E0,1.244391566E1
1.391514625E1,-6.374399446E0,-8.359413385E-2,-9.349928209E0,1.131640905E1
1.392509025E1,-5.810227920E0,8.350028604E-1,-9.060969921E0,1.079616386E1
1.393503325E1,-3.543477589E0,1.485372285E0,-8.324658705E0,9.168560782E0
1.394497725E1,-2.099982478E0,2.305247814E0,-7.087503063E0,7.743177227E0
1.395492025E1,2.907028046E-1,2.642124619E0,-5.281022159E0,5.912235252E0
1.396486425E1,2.037548248E0,3.010682223E0,-3.422287028E0,4.992780670E0
1.397480725E1,2.824172416E0,3.504540396E0,-1.922953931E0,4.894436131E0
1.398475125E1,4.233986980E0,3.617911475E0,-8.977113247E-1,5.641082770E0
1.399469425E1,5.266803485E0,3.355947443E0,-2.459777445E-1,6.249968579E0
1.400463825E1,5.606406847E0,2.848226691E0,-5.817125881E-1,6.315265834E0
1.401458125E1,5.786106402E0,2.279538192E0,-1.461565347E0,6.388387506E0
1.402452525E1,5.810195176E0,1.648642918E0,-2.551195738E0,6.556294010E0
1.403446825E1,5.816648163E0,1.289132127E0,-3.603649239E0,6.962869045E0
1.404441225E1,5.567729854E0,1.310599594E0,-4.456691052E0,7.251164193E0
1.405435525E1,5.318977606E0,1.534497668E0,-4.681054564E0,7.249722594E0
1.406429925E1,5.362677941E0,1.915950721E0,-3.894052959E0,6.898755708E0
1.407424225E1,5.517130973E0,2.372199603E0,-2.738983161E0,6.600613145E0
1.408418625E1,5.484621624E0,2.613456305E0,-2.023334252E0,6.403523226E0
1.409412925E1,5.310317879E0,2.663171087E0,-1.465485905E0,6.118791151E0
1.410407325E1,4.636263430E0,2.843462965E0,-1.167391927E0,5.562645426E0
1.411401625E1,3.823691951E0,2.770083917E0,-1.178698688E0,4.866550692E0
1.412396025E1,2.754210480E0,2.250658793E0,-8.791876379E-1,3.663892913E0
1.413390325E1,1.414779435E0,1.388720149E0,2.036819100E-1,1.992895086E0
1.414384725E1,-5.552972066E-1,3.292760092E-1,2.073904481E0,2.172062954E0
1.415379025E1,-3.538813266E0,-3.676202953E-1,4.189526507E0,5.496405767E0
1.416373425E1,-6.892901294E0,-9.809698284E-1,6.324654844E0,9.406149528E0
1.417367825E1,-9.895931851E0,-1.616700164E0,7.727474384E0,1.265926724E1
1.418362125E1,-1.363706346E1,-2.811368183E0,8.166072276E0,1.614180991E1
1.419356425E1,-1.772357138E1,-4.406851725E0,7.904629816E0,1.990046474E1
1.420350825E1,-1.888483425E1,-4.678193521E0,8.042558616E0,2.105243949E1
1.421345125E1,-1.586510639E1,-3.345234175E0,8.520121184E0,1.831624026E1
1.422339525E1,-8.976453681E0,-1.571860791E0,7.596549379E0,1.186402248E1
1.423333825E1,-1.180567458E0,7.127638936E-1,3.988679911E0,4.220348247E0
1.424328225E1,3.021404555E0,2.905519465E0,-6.015737670E0,7.332123059E0
1.425322625E1,6.229077426E0,2.576991314E0,-1.108914742E1,1.297734489E1
1.426316925E1,8.367574929E0,-8.916933703E-1,-9.169781926E0,1.244573533E1
1.427311325E1,8.882130491E0,-3.924810775E0,-4.691300640E0,1.078446491E1
1.428305625E1,7.223940824E0,-5.359297666E0,-1.755659536E0,9.164591257E0
1.429300025E1,3.242470529E0,-5.869751991E0,-1.877446806E0,6.963649193E0
1.430294325E1,-3.411970201E-1,-6.218849477E0,-2.955813121E0,6.894007211E0
1.431288725E1,-3.735214223E0,-6.412966511E0,-3.390629618E0,8.159309650E0
1.432283025E1,-5.532531370E0,-4.304499723E0,-1.730341093E0,7.220228634E0
1.433277425E1,-4.440561508E0,-6.418763441E-1,5.750520247E-1,4.523414261E0
1.434271725E1,-3.606751480E0,7.981466907E-1,5.547475684E-1,3.735430262E0
1.435266125E1,-2.581560329E-1,1.525742047E0,-2.241253547E0,2.723554808E0
1.436260425E1,2.716482491E0,1.416803157E0,-4.376714591E0,5.342493698E0
1.437254825E1,4.311011475E0,-7.236221731E-2,-5.284774318E0,6.820476216E0
1.438249125E1,4.774413840E0,-1.942390661E0,-5.055666960E0,7.219949959E0
1.439243525E1,3.550217675E0,-3.393621638E0,-3.362912062E0,5.952301311E0
1.440237825E1,2.934405587E0,-4.159989882E0,-2.079764560E0,5.499242911E0
1.441232225E1,3.098933664E0,-4.970579447E0,-1.649522047E0,6.085307953E0
1.442226525E1,3.309298649E0,-5.213588560E0,-1.497011460E0,6.354054339E0
1.443220925E1,4.498014787E0,-4.329541594E0,-1.588736148E0,6.442138619E0
1.444215225E1,5.084163950E0,-3.397625227E0,-1.276360638E0,6.246733285E0
1.445209625E1,4.656041053E0,-2.975902984E0,2.741095760E-1,5.532617185E0
1.446203925E1,3.852828334E0,-2.590822903E0,2.710550783E0,5.376219400E0
1.447198325E1,2.230209326E0,-1.489034396E0,5.515221857E0,6.132595634E0
1.448192625E1,2.882767949E0,3.925762117E-2,5.343796113E0,6.071906546E0
1.449187025E1,2.097494195E0,8.425288117E-1,3.986973694E0,4.583153492E0
1.450181325E1,1.800215612E0,1.544253162E0,3.485152783E0,4.215659379E0
1.451175725E1,3.475148782E0,2.090579571E0,-5.191511813E-1,4.088606113E0
1.452170025E1,4.896484407E0,1.142768133E0,-8.657779258E0,1.001192390E1
1.453164425E1,4.659673051E0,-1.051662666E-1,-7.545915999E0,8.869298797E0
1.454158725E1,3.994249969E0,3.065993375E-1,-2.950371702E0,4.975211468E0
1.455153125E1,3.588977113E0,1.569155869E0,8.170013300E-1,4.001312039E0
1.456147425E1,2.004341180E0,2.175814433E0,3.110606461E0,4.292717620E0
1.457141825E1,-3.186375850E-1,2.238299534E0,3.611377797E0,4.260699978E0
1.458136125E1,-2.015234396E0,2.135423622E0,2.791493497E0,4.051375033E0
1.459130525E1,-2.793165508E0,2.235719742E0,1.556554973E0,3.901676525E0
1.460124825E1,-2.608252283E0,2.299912814E0,4.225458232E-1,3.503016400E0
1.461119225E1,-2.092787187E0,2.257535704E0,3.153695762E-2,3.078509419E0
1.462113525E1,-1.604829147E0,2.399224849E0,1.262636054E-1,2.889238475E0
1.463107925E1,-1.585886653E0,2.343997897E0,-3.130225039E-1,2.847340111E0
1.464102225E1,-2.337876154E0,1.976793339E0,-5.610543752E-1,3.112580735E0
1.465096625E1,-3.472247978E0,1.690704864E0,-2.353346425E-1,3.869156413E0
1.466090925E1,-4.479148453E0,1.595620952E0,4.301786323E-1,4.774288507E0
1.467085325E1,-4.936914688E0,1.366998913E0,1.703816661E0,5.398592768E0
1.468079625E1,-4.747036300E0,8.836967182E-1,2.807600237E0,5.585507373E0
1.469074025E1,-4.174043957E0,4.414946026E-1,2.744514627E0,5.014969689E0
1.470068325E1,-3.009086225E0,1.330358505E-1,2.052082672E0,3.644631908E0
1.471062725E1,-1.382100517E0,1.285270625E-1,2.227813722E0,2.624857143E0
1.472057025E1,8.336397283E-2,5.287730670E-1,3.021235278E0,3.068291562E0
1.473051425E1,8.035366541E-1,9.877578610E-1,4.128801418E0,4.320687202E0
1.474045725E1,6.246472308E-1,1.600695165E0,5.209467443E0,5.485522784E0
1.475040125E1,-9.440181663E-2,1.949764584E0,6.108245299E0,6.412577818E0
1.476034425E1,-1.882012604E-1,1.846353652E0,5.930156068E0,6.213790511E0
1.477028825E1,6.404307662E-1,1.033602371E0,5.558792385E0,5.690224794E0
1.478023125E1,5.740388484E-1,-3.794305015E-1,4.941618188E0,4.989296385E0
1.479017525E1,-5.860425974E-1,-1.525131013E0,4.256334454E0,4.559150526E0
1.480011812E1,-1.938737320E0,-1.956156760E0,3.872943048E0,4.752361468E0
1.481006213E1,-2.612904328E0,-1.731757581E0,4.285890375E0,5.309906746E0
1.482000512E1,-2.609581940E0,-1.229211030E0,5.462142588E0,6.177044545E0
1.482994913E1,-2.862879814E0,-7.803781718E-1,6.696915489E0,7.324871876E0
1.483989212E1,-3.177534276E0,-4.544537866E-1,7.221251689E0,7.902514048E0
1.484983613E1,-2.872726817E0,7.489698529E-3,7.322262340E0,7.865630377E0
1.485977912E1,-2.486266501E0,7.694280910E-1,7.045301369E0,7.510646582E0
1.486972313E1,-2.955478952E0,1.696604705E0,6.164165146E0,7.043454785E0
1.487966612E1,-3.723244972E0,2.606660087E0,4.904328740E0,6.686529019E0
1.488961012E1,-4.278520544E0,3.504415265E0,3.387077435E0,6.485287808E0
1.489955312E1,-4.612030522E0,4.226448750E0,1.179563638E0,6.365930014E0
1.490949712E1,-4.441227506E0,4.654704087E0,-9.962893872E-1,6.510250720E0
1.491944012E1,-3.649656009E0,4.791518408E0,-2.161027409E0,6.399115338E0
1.492938412E1,-2.474313623E0,4.114169345E0,-2.049094160E0,5.219904614E0
1.493932813E1,-1.152475680E0,1.790395798E0,-1.458789673E0,2.581043320E0
1.494927112E1,1.719121748E0,-3.133001881E0,-7.574103087E-1,3.653046776E0
1.495921513E1,5.569772286E0,-1.027759014E1,6.908529148E-2,1.168999552E1
1.496915812E1,8.377481282E0,-1.642191685E1,2.616924874E0,1.862014612E1
1.497910212E1,9.247217188E0,-1.709704690E1,2.657032680E0,1.961835521E1
1.498904512E1,6.338911525E0,-1.334245968E1,1.488070191E0,1.484646027E1
1.499898912E1,2.945828123E0,-1.024281324E1,9.615567800E-1,1.070129515E1
1.500893212E1,1.952024826E0,-8.315798419E0,1.224859824E0,8.629205401E0
1.501887612E1,1.374895577E0,-5.831966114E0,9.077568412E-1,6.060213617E0
1.502881913E1,-1.932572016E-1,-3.198636877E0,-7.547088951E-2,3.205358337E0
1.503876312E1,-2.900661305E0,-2.352855844E0,-3.400171397E0,5.050834798E0
1.504870613E1,-4.804399532E0,-2.005057025E0,-6.158581640E0,8.064157510E0
1.505865012E1,-8.140150985E0,-1.542128869E0,-7.459197114E0,1.114808688E1
1.506859313E1,-7.320581850E0,-7.751536846E-1,-8.389747571E0,1.116152526E1
1.507853712E1,-4.610811962E0,1.619439000E-1,-9.559647954E0,1.061473889E1
1.508848013E1,-2.849759831E0,8.896357352E-1,-8.706797637E0,9.204396120E0
1.509842412E1,-1.124935294E0,1.322841910E0,-6.514621525E0,6.742083042E0
1.510836713E1,2.585287929E-2,2.004992121E0,-4.547303014E0,4.969771270E0
1.511831112E1,1.446484208E0,2.744479544E0,-2.769375234E0,4.158596364E0
1.512825413E1,2.121089465E0,3.164993752E0,-1.564859335E0,4.118857937E0
1.513819813E1,2.884956269E0,3.502597951E0,-7.820876053E-1,4.604652658E0
1.514814112E1,3.617223550E0,3.624946845E0,-4.836223295E-1,5.143776473E0
1.515808513E1,4.383949643E0,3.201476870E0,-6.174864382E-2,5.428837953E0
1.516802812E1,5.520189652E0,2.716172004E0,-3.377837080E-1,6.161508093E0
1.517797213E1,6.554653902E0,2.263483492E0,-1.539636493E0,7.103332023E0
1.518791512E1,7.001812118E0,1.952240295E0,-2.908431378E0,7.829149902E0
1.519785913E1,6.909563520E0,1.914883019E0,-4.011193446E0,8.215748163E0
1.520780212E1,6.357954737E0,2.031165428E0,-4.565077965E0,8.086356303E0
1.521774613E1,5.723952838E0,2.117140548E0,-4.483693787E0,7.572940655E0
1.522768912E1,5.399535280E0,2.393192861E0,-4.252669127E0,7.277880737E0
1.523763313E1,5.187447413E0,2.729827591E0,-4.047591194E0,7.123521869E0
1.524757612E1,4.861678856E0,3.005077082E0,-4.007642139E0,6.980516105E0
1.525752012E1,4.386257831E0,3.147038707E0,-4.037441597E0,6.741219848E0
1.526746312E1,3.771953156E0,3.175831566E0,-4.221810446E0,6.491318833E0
1.527740712E1,2.698059961E0,3.100197832E0,-3.166383051E0,5.188134132E0
1.528735012E1,1.099689064E0,2.981953683E0,3.242436031E-1,3.194760980E0
1.529729412E1,-9.966988385E-2,2.603990248E0,4.494682167E0,5.195466011E0
1.530723713E1,-2.066384669E0,1.172059175E0,6.977580671E0,7.370909058E0
1.531718112E1,-5.531389993E0,-4.381985271E-1,8.251128214E0,9.943309812E0
1.532712413E1,-9.292733084E0,-2.011118833E0,9.504979411E0,1.344411101E1
1.533706812E1,-1.364423097E1,-4.680697884E0,1.008505887E1,1.760063590E1
1.534701113E1,-1.671838940E1,-8.141823288E0,9.531769014E0,2.089613484E1
1.535695512E1,-1.619632192E1,-8.776226891E0,8.632216401E0,2.034350418E1
1.536689813E1,-1.173095769E1,-5.170034405E0,7.142167513E0,1.467498487E1
1.537684212E1,-6.649129704E0,-1.432661975E0,5.353334675E0,8.655728641E0
1.538678513E1,-1.956595886E0,1.169546626E0,3.363920707E-1,2.304184541E0
1.539672913E1,7.256540805E-1,2.843183468E0,-1.017562523E1,1.059026037E1
1.540667212E1,4.296006935E0,1.111933426E0,-1.063481760E1,1.152351582E1
1.541661613E1,6.053072727E0,-3.254629814E0,-7.031649874E0,9.832416011E0
1.542655912E1,6.281514087E0,-6.242777452E0,-3.289926824E0,9.447396893E0
1.543650313E1,4.823405906E0,-7.576003432E0,-1.200079032E0,9.060974684E0
1.544644612E1,2.266164148E0,-7.923770676E0,-1.477292895E0,8.372815295E0
1.545639013E1,1.253029078E-1,-7.279791673E0,-2.968409485E0,7.862729965E0
1.546633312E1,-2.265520077E0,-5.276206977E0,-2.209441770E0,6.152444573E0
1.547627713E1,-2.970417126E0,-1.631714060E0,2.559077784E-1,3.398728802E0
1.548622012E1,-2.080403369E0,1.372304676E0,1.260406510E0,2.792834201E0
1.549616413E1,-1.573675767E-1,2.708837256E0,-1.959285021E-1,2.720469043E0
1.550610712E1,1.290830743E0,2.006604783E0,-2.298880781E0,3.313240047E0
1.551605112E1,2.121472750E0,8.585291326E-2,-3.796139286E0,4.349562142E0
1.552599412E1,3.833535739E0,-1.828292187E0,-4.698195092E0,6.333378696E0
1.553593812E1,4.382689860E0,-3.568928765E0,-3.815657877E0,6.819418448E0
1.554588112E1,4.329882779E0,-4.596275784E0,-2.303330804E0,6.721530239E0
1.555582512E1,4.132110357E0,-5.188520377E0,-1.798942966E0,6.872501401E0
1.556576813E1,4.270111371E0,-5.015170898E0,-2.017942534E0,6.888968162E0
1.557571212E1,4.932563775E0,-3.882138965E0,-2.358161607E0,6.705379519E0
1.558565513E1,4.622839393E0,-2.651517586E0,-1.991588841E0,5.689254404E0
1.559559912E1,3.772482621E0,-1.847478656E0,-8.423919868E-1,4.284206668E0
1.560554213E1,4.146536023E0,-1.116791292E0,3.382473922E-1,4.307597367E0
1.561548612E1,3.245445885E0,-4.910760677E-1,1.154268729E0,3.479426820E0
1.562542913E1,1.944499751E0,4.352187860E-1,2.405845651E0,3.123873872E0
1.563537312E1,2.451325587E0,1.515473167E0,4.432187126E0,5.286770164E0
1.564531613E1,3.191502104E0,1.785001742E0,5.552493764E0,6.648466282E0
1.565526013E1,4.108187936E0,1.911143725E0,4.734344626E0,6.553144092E0
1.566520313E1,5.389317271E0,1.434808488E0,-1.931098518E0,5.901911346E0
1.567514713E1,4.715806029E0,-1.749989784E-1,-6.597826234E0,8.111766895E0
1.568509012E1,3.328461729E0,-6.324605727E-1,-4.835804342E0,5.904546341E0
1.569503413E1,1.838778292E0,1.117139786E-1,-1.229152850E0,2.214588528E0
1.570497712E1,2.153878896E-1,9.399872786E-1,1.534157360E0,1.812072524E0
1.571492113E1,-1.154080595E0,1.704534699E0,3.133828678E0,3.749429655E0
1.572486412E1,-2.477493923E0,2.258467165E0,3.403889641E0,4.777563685E0
1.573480813E1,-3.081397864E0,2.697152181E0,2.295096463E0,4.694370081E0
1.574475112E1,-3.224866902E0,2.858315477E0,6.271135864E-1,4.354653299E0
1.575469513E1,-3.122678622E0,3.056490480E0,-7.230913921E-1,4.429008579E0
1.576463913E1,-2.428567054E0,2.866285232E0,-7.768904538E-1,3.836285671E0
1.577458212E1,-2.539729933E0,2.460383801E0,-2.307654820E-1,3.543581421E0
1.578452613E1,-3.609801972E0,2.100574216E0,1.278955632E-1,4.178449424E0
1.579446921E1,-4.404343269E0,2.018006269E0,9.592883527E-1,4.938706620E0
1.580441321E1,-4.133254073E0,1.748857178E0,2.058417399E0,4.937547250E0
1.581435621E1,-3.679776479E0,1.191450296E0,2.639831341E0,4.682842967E0
1.582430021E1,-2.995676513E0,4.756055045E-1,2.515392652E0,3.940492172E0
1.583424321E1,-1.864001133E0,1.132395172E-1,1.966875876E0,2.712180696E0
1.584418721E1,-5.016342388E-1,9.903838456E-2,2.225369001E0,2.283355579E0
1.585413021E1,8.600027040E-1,4.218362635E-1,3.889072593E0,4.005301002E0
1.586407421E1,1.174023985E0,1.129040040E0,5.558218188E0,5.791964534E0
1.587401721E1,-4.157867342E-2,2.044125196E0,6.508886576E0,6.822446853E0
1.588396121E1,-1.301418296E0,3.052576938E0,6.624302427E0,7.409001160E0
1.589390421E1,-1.584824945E0,3.356348562E0,5.786324503E0,6.874467036E0
1.590384821E1,-4.781446214E-1,2.503261433E0,4.489013291E0,5.161993840E0
1.591379121E1,7.211160564E-1,6.784810835E-1,3.454319830E0,3.593420437E0
1.592373521E1,1.140053417E0,-1.751322364E0,3.058279143E0,3.704041459E0
1.593367821E1,1.084753082E0,-3.976146989E0,3.236019296E0,5.240062501E0
1.594362221E1,3.717762038E-1,-4.715712181E0,3.929162858E0,6.149347907E0
1.595356521E1,-6.607540798E-1,-2.868113072E0,4.920882207E0,5.733912298E0
1.596350921E1,-2.059367864E0,-8.520013011E-1,6.121929538E0,6.514976860E0
1.597345221E1,-3.180249723E0,1.357577294E-1,7.292548544E0,7.956989552E0
1.598339621E1,-3.349825408E0,1.049896806E0,7.979097031E0,8.717201558E0
1.599333921E1,-3.261046548E0,2.001440522E0,7.945763224E0,8.819032938E0
1.600328321E1,-3.816696050E0,2.895435941E0,7.300875564E0,8.732325121E0
1.601322621E1,-4.721500340E0,3.532156211E0,5.703360699E0,8.203475862E0
1.602317021E1,-5.459608405E0,4.106782558E0,3.481562592E0,7.667741845E0
1.603311321E1,-5.674501766E0,4.739170625E0,1.122659558E0,7.477972519E0
1.604305721E1,-5.117863793E0,5.177891893E0,-1.312511049E0,7.397687444E0
1.605300021E1,-3.894043311E0,5.061406587E0,-2.724109014E0,6.942778973E0
1.606294421E1,-2.398158463E0,3.966815418E0,-2.790821652E0,5.410681479E0
1.607288721E1,-5.912963207E-1,1.214688885E0,-2.190006795E0,2.573175118E0
1.608283121E1,1.905603488E0,-3.590261747E0,-1.479073957E0,4.325385975E0
1.609277421E1,5.419541529E0,-1.116985069E1,-2.857016811E-1,1.241847899E1
1.610271821E1,8.821195487E0,-1.784082092E1,2.165664690E0,2.001995216E1
1.611266121E1,1.023665729E1,-1.915826760E1,2.422138625E0,2.185623768E1
1.612260521E1,8.174847777E0,-1.605470820E1,1.454710071E0,1.807478833E1
1.613254821E1,5.261765524E0,-1.278007916E1,9.024788520E-1,1.385030930E1
1.614249221E1,2.299514619E0,-9.746298094E0,1.888481671E0,1.019041005E1
1.615243521E1,3.091917005E-1,-5.599624076E0,2.359491264E0,6.084290290E0
1.616237921E1,-9.020104900E-1,-2.809414628E0,1.429810873E-1,2.954128817E0
1.617232221E1,-3.498062850E0,-2.174698200E0,-3.658244984E0,5.508948387E0
1.618226621E1,-9.860537485E0,-2.242839312E0,-7.448613068E0,1.255955271E1
1.619220921E1,-8.801651169E0,-1.549885785E0,-9.167669327E0,1.280302191E1
1.620215321E1,-7.338368495E0,-2.586077303E-1,-1.003301047E1,1.243301368E1
1.621209621E1,-7.351223599E0,6.117374557E-1,-1.046700251E1,1.280518850E1
1.622204021E1,-3.742047864E0,1.322571768E0,-9.833709290E0,1.060443099E1
1.623198321E1,-1.355548895E0,1.627269591E0,-7.681112396E0,7.967747911E0
1.624192721E1,-1.568272939E-1,2.083938303E0,-5.279290799E0,5.677878564E0
1.625187021E1,9.737116796E-1,2.755317358E0,-3.492344858E0,4.553719445E0
1.626181421E1,2.474394314E0,3.369794235E0,-2.270784617E0,4.757583755E0
1.627175721E1,3.708460287E0,4.025554208E0,-1.437820681E0,5.659071716E0
1.628170121E1,4.792498401E0,4.318751727E0,-1.146904453E0,6.552484050E0
1.629164421E1,5.270976058E0,3.802171859E0,-1.129338248E0,6.596597936E0
1.630158821E1,5.629947737E0,3.064757273E0,-1.665710356E0,6.622963057E0
1.631153121E1,5.698881147E0,2.388736113E0,-2.699555971E0,6.743212067E0
1.632147521E1,5.923900132E0,2.087939553E0,-3.727666929E0,7.303943119E0
1.633141821E1,6.445439608E0,2.128844919E0,-3.960064223E0,7.858611905E0
1.634136221E1,6.965730704E0,2.353065174E0,-3.606849713E0,8.189486236E0
1.635130521E1,7.297725084E0,2.532398109E0,-3.103160324E0,8.324628255E0
1.636124921E1,7.052464208E0,2.512439223E0,-2.580993733E0,7.919035983E0
1.637119221E1,6.854579812E0,2.724927624E0,-1.960424058E0,7.632414916E0
1.638113621E1,6.487373500E0,2.995044429E0,-1.532340045E0,7.307829505E0
1.639107921E1,5.483945101E0,3.104621251E0,-1.699072815E0,6.526804380E0
1.640102321E1,4.014559103E0,3.035445181E0,-1.756762614E0,5.330743581E0
1.641096621E1,1.684469978E0,2.846318745E0,-7.879988480E-1,3.399987013E0
1.642091021E1,-7.857342213E-1,2.438008261E0,1.334351861E0,2.888210075E0
1.643085321E1,-4.157653627E0,1.643737689E0,4.154807787E0,6.103309349E0
1.644079721E1,-7.489013820E0,2.983021384E-1,6.749572590E0,1.008618076E1
1.645074021E1,-1.117918753E1,-1.523397898E0,8.289274864E0,1.400025188E1
1.646068421E1,-1.596162872E1,-4.198363988E0,8.743406469E0,1.867744651E1
1.647062721E1,-2.020714231E1,-7.008792524E0,9.491978711E0,2.339977421E1
1.648057121E1,-2.022149606E1,-7.310255667E0,9.868708384E0,2.365882808E1
1.649051421E1,-1.387542754E1,-3.766250074E0,8.637463692E0,1.677253434E1
1.650045821E1,-7.016686850E0,-7.092994183E-1,6.550773105E0,9.625467692E0
1.651040221E1,-2.630527836E-1,1.208192629E0,2.863371272E0,3.118945533E0
1.652034521E1,3.920070730E0,2.216587068E0,-1.021826897E1,1.116661244E1
1.653028821E1,6.477657766E0,-5.535459656E-1,-1.297101180E1,1.450908716E1
1.654023221E1,7.302708081E0,-5.323240226E0,-8.129714874E0,1.215560347E1
1.655017621E1,6.744053403E0,-7.464682387E0,-3.676328083E0,1.071070155E1
