"Time (s)","Linear Acceleration x (m/s^2)","Linear Acceleration y (m/s^2)","Linear Acceleration z (m/s^2)","Absolute acceleration (m/s^2)"
8.223666664E-3,-1.935015860E0,-7.728972441E-1,-2.169326947E0,3.007928844E0
1.816866666E-2,-1.764773884E0,-8.646292403E-1,-2.378794677E0,3.085559058E0
2.811366666E-2,-1.830345145E0,-9.237410823E-1,-1.762668886E0,2.703786704E0
3.805866669E-2,-1.753793398E0,-9.838171300E-1,-1.518183351E0,2.519636504E0
4.800366668E-2,-1.745899072E0,-6.989209029E-1,-2.283948746E0,2.958559763E0
5.794866668E-2,-1.640319115E0,-2.810051975E-1,-2.544843907E0,3.040697491E0
6.789466666E-2,-1.575644232E0,3.873721898E-2,-3.111130956E0,3.487591023E0
7.783966669E-2,-1.518080440E0,2.224769077E-1,-3.881429697E0,4.173674723E0
8.778466668E-2,-1.135598569E0,9.555899888E-2,-2.536007010E0,2.780296241E0
9.772966668E-2,-8.814139652E-1,-5.213862795E-1,-1.132620875E0,1.526946062E0
1.076746667E-1,-1.233376294E0,-7.050666189E-1,1.469791210E-1,1.428264290E0
1.176196667E-1,-4.642750624E-1,-5.598849320E-1,3.449442083E-1,8.049900481E-1
1.275656667E-1,-3.621777070E-1,-4.073521256E-1,-5.920282459E-1,8.047396409E-1
1.375106667E-1,-7.214832616E-1,-1.773858118E-1,-1.379737657E0,1.567060887E0
1.474556667E-1,-6.516587359E-1,1.439371070E-1,-1.969537529E0,2.079532418E0
1.574006667E-1,-6.492926601E-1,3.363505554E-1,-1.677227032E0,1.829700296E0
1.673456667E-1,-7.453325924E-1,3.177261503E-1,-9.089239454E-1,1.217626100E0
1.772906667E-1,-6.925059226E-1,3.388093096E-1,-2.634071249E-1,8.147021017E-1
1.872356667E-1,-5.768658310E-1,5.225010511E-1,4.968554556E-1,9.233888018E-1
1.971816667E-1,-2.808443990E-1,8.630905455E-1,1.232120605E0,1.530333313E0
2.071266667E-1,2.931849477E-1,7.428973733E-1,2.353406652E0,2.485231737E0
2.170716667E-1,1.307343864E-1,7.656081051E-1,2.721185991E0,2.829858733E0
2.270166667E-1,-3.587067997E-1,5.063213669E-1,2.756646430E0,2.825620540E0
2.369616667E-1,-1.049905577E-1,3.395916671E-1,3.007986072E0,3.028914942E0
2.469076667E-1,-1.003388053E-1,6.986488612E-1,2.756143570E0,2.845084443E0
2.568526667E-1,-7.515075445E-2,1.050969186E0,1.781316242E0,2.069606585E0
2.667976667E-1,-2.971578383E-1,1.237458528E0,3.739563382E-1,1.326442510E0
2.767426667E-1,-3.446728975E-1,1.403289364E0,-5.855238032E-1,1.559121089E0
2.866876667E-1,-3.039438245E-1,1.431678766E0,-1.173708674E0,1.876080486E0
2.966326667E-1,-4.333014840E-1,1.304704577E0,-1.334173229E0,1.915730256E0
3.065776667E-1,-5.673576736E-1,1.158636745E0,-9.474682063E-1,1.600634199E0
3.165236667E-1,-6.637092626E-1,9.086758773E-1,-6.474545878E-1,1.298229286E0
3.264686667E-1,-4.041887820E-1,7.392146507E-1,-6.004856586E-2,8.446376155E-1
3.364136667E-1,1.276800933E-1,9.359847133E-1,7.920468754E-1,1.232764309E0
3.463586667E-1,3.871573046E-1,1.164909930E0,8.262144953E-1,1.479708186E0
3.563036667E-1,3.057786807E-1,1.073576568E0,1.390041035E-1,1.124895280E0
3.662486667E-1,3.380927333E-1,8.297938684E-1,-3.451085150E-1,9.601897976E-1
3.761946667E-1,2.835648161E-1,6.431260403E-1,-5.047164524E-1,8.653085033E-1
3.861396667E-1,2.751994970E-1,4.509317163E-1,-8.983416545E-1,1.042157332E0
3.960846667E-1,4.414478248E-1,4.004246369E-1,-1.220187607E0,1.357966814E0
4.060296667E-1,9.854675066E-1,6.056243379E-1,-1.069990763E0,1.575692634E0
4.159746667E-1,1.404100958E0,9.396753296E-1,-7.022763276E-1,1.829666982E0
4.259196667E-1,1.250537580E0,9.935542059E-1,-8.120151168E-1,1.791748517E0
4.358656667E-1,1.105933598E0,7.679880680E-1,-7.939741176E-1,1.563102586E0
4.458106667E-1,9.923488024E-1,5.817260367E-1,-1.932317662E-1,1.166404665E0
4.557556667E-1,1.152462816E0,3.727216986E-1,9.717891151E-1,1.552889594E0
4.657006667E-1,1.273385282E0,1.684553593E-1,2.065919523E0,2.432675639E0
4.756456667E-1,1.093669940E0,-5.897604033E-2,3.017698882E0,3.210311301E0
4.855906667E-1,8.511274347E-1,-1.789775701E-1,3.835714411E0,3.933084785E0
4.955366667E-1,7.921994877E-1,-1.519717661E-1,3.920364552E0,4.002490933E0
5.054816667E-1,8.470665434E-1,-7.069239870E-2,3.422395787E0,3.526373784E0
5.154266667E-1,1.246523466E0,3.881422681E-1,2.930232137E0,3.207917634E0
5.253716667E-1,1.290679300E0,1.070247310E0,2.127686001E0,2.708935230E0
5.353166667E-1,1.074748642E0,1.122148950E0,8.962290555E-1,1.793747315E0
5.452616667E-1,8.031963462E-1,6.246450381E-1,1.059036005E-1,1.022996269E0
5.552076667E-1,5.333508521E-1,2.561562851E-2,-1.303426230E-1,5.496439677E-1
5.651526667E-1,4.290406179E-1,-5.288192600E-1,-2.373554403E-1,7.211541213E-1
5.750976667E-1,2.536256102E-1,-9.569971213E-1,-5.456001842E-1,1.130419834E0
5.850426667E-1,2.398437229E-1,-1.115985692E0,-7.403791237E-1,1.360555153E0
5.949876667E-1,2.921859509E-1,-1.116999453E0,-8.070683724E-1,1.408694348E0
6.049326667E-1,5.890420729E-1,-1.043879875E0,-8.186634010E-1,1.451504572E0
6.148786667E-1,1.101496146E0,-7.786924195E-1,-3.032792884E-1,1.382618519E0
6.248236667E-1,1.378969625E0,-5.370199800E-1,2.210633433E-1,1.496267585E0
6.347686667E-1,1.483278982E0,-4.970995769E-1,1.811812395E-1,1.574817821E0
6.447136667E-1,1.748381507E0,-3.491197050E-1,1.351987356E-1,1.788015985E0
6.546586667E-1,1.645614061E0,-1.698490432E-1,-1.078846371E-1,1.657870149E0
6.646036667E-1,1.196714544E0,-2.466989985E-1,-9.622844660E-1,1.555306237E0
6.745496667E-1,7.160652316E-1,-3.249717276E-1,-1.815872117E0,1.978824799E0
6.844946667E-1,3.140592152E-1,-2.917231438E-1,-2.197936204E0,2.239343462E0
6.944396667E-1,-9.277075410E-2,-3.529674652E-1,-2.331435739E0,2.359827334E0
7.043846667E-1,-3.903186017E-1,-3.250027178E-1,-2.213978040E0,2.271491611E0
7.143296667E-1,-6.758992454E-1,-3.322865944E-1,-2.027241361E0,2.162628426E0
7.242746667E-1,-7.634194922E-1,-3.983651014E-1,-1.952823848E0,2.134250467E0
7.342206667E-1,-4.876747423E-1,-2.528640103E-1,-1.582820227E0,1.675436282E0
7.441656667E-1,-4.149301171E-1,9.648943707E-2,-1.427051572E0,1.489279491E0
7.541106667E-1,-3.951884553E-1,1.853615601E-1,-1.897938958E0,1.947486870E0
7.640556667E-1,-5.181036526E-1,1.593687862E-1,-2.441977935E0,2.501416807E0
7.740006667E-1,-5.888751349E-1,1.456849860E-1,-2.737991474E0,2.804388587E0
7.839456667E-1,-6.631716111E-1,1.337769851E-1,-2.889941897E0,2.968072950E0
7.938915000E-1,-7.508254668E-1,1.034471852E-1,-3.156590719E0,3.246306388E0
8.038365000E-1,-7.338004214E-1,2.094900955E-1,-3.195784020E0,3.285633069E0
8.137815000E-1,-7.290507281E-1,4.536937948E-1,-2.836979572E0,2.964086051E0
8.237265000E-1,-7.533959028E-1,5.000565138E-1,-2.411475350E0,2.575436908E0
8.336715000E-1,-6.862529102E-1,4.931942216E-1,-1.899386144E0,2.078906280E0
8.436165000E-1,-6.014481103E-1,5.279649818E-1,-1.522419659E0,1.719955950E0
8.535625000E-1,-3.827730623E-1,6.491681144E-1,-1.103154416E0,1.335995555E0
8.635075000E-1,-3.522772014E-1,7.799089327E-1,-7.654858983E-1,1.148183709E0
8.734525000E-1,-3.624402469E-1,7.269021687E-1,-7.399353200E-1,1.098751097E0
8.833975000E-1,-2.622175089E-1,8.115986489E-1,-7.565817583E-1,1.140116812E0
8.933425000E-1,-1.837212700E-1,9.188808766E-1,-7.264469630E-1,1.185673125E0
9.032875000E-1,-3.078114653E-1,1.013112265E0,-9.391733462E-1,1.415341278E0
9.132325000E-1,-2.291468266E-1,1.081333046E0,-1.025479419E0,1.507778983E0
9.231785000E-1,-5.064331949E-2,1.260093099E0,-6.380563581E-1,1.413334809E0
9.331235000E-1,-1.613714576E-2,1.281323170E0,-3.551932079E-1,1.329741211E0
9.430685000E-1,-2.291377634E-2,1.160812494E0,-3.702509576E-1,1.218645338E0
9.530135000E-1,3.582062781E-2,1.060600135E0,-4.666662812E-1,1.159281321E0
9.629585000E-1,4.118141359E-1,1.049378158E0,-4.745951056E-2,1.128289771E0
9.729035000E-1,6.662764826E-1,1.028909542E0,2.571973819E-1,1.252489397E0
9.828495000E-1,6.129501683E-1,8.285568899E-1,2.556665808E-1,1.061875618E0
9.927945000E-1,6.639963609E-1,6.715620732E-1,4.861907190E-1,1.062199699E0
1.002739500E0,6.040618157E-1,7.427229801E-1,8.357799554E-1,1.270848628E0
1.012684500E0,6.092594057E-1,9.293333593E-1,1.286617824E0,1.700071452E0
1.022629500E0,7.601953375E-1,1.042288263E0,1.739383519E0,2.165575397E0
1.032574500E0,1.363587062E0,1.070270406E0,2.353087978E0,2.922648021E0
1.042520500E0,1.975104078E0,1.112485695E0,3.563066931E0,4.223044695E0
1.052465500E0,1.742821682E0,9.053426720E-1,3.992437332E0,4.449340246E0
1.062410500E0,8.874763584E-1,7.164638655E-1,3.675874339E0,3.848764336E0
1.072355500E0,1.343409491E-1,6.980031824E-1,3.260460073E0,3.337042975E0
1.082300500E0,-2.458724946E-1,8.119198803E-1,2.971570197E0,3.090290700E0
1.092245500E0,-2.877639940E-1,9.790344731E-1,2.791119860E0,2.971812021E0
1.102191500E0,-4.009359759E-1,1.016228466E0,2.567508300E0,2.790263217E0
1.112136500E0,-7.595600376E-1,9.194410399E-1,2.294273760E0,2.585729174E0
1.122081500E0,-1.251570198E0,7.487203961E-1,2.034742169E0,2.503434818E0
1.132026500E0,-1.547106019E0,5.565781123E-1,1.828863460E0,2.459279932E0
1.141971500E0,-1.484280610E0,3.418449647E-1,1.562726855E0,2.182214960E0
1.151916500E0,-1.216056841E0,1.458747281E-1,1.181976053E0,1.702099018E0
1.161862500E0,-7.516487548E-1,3.486928582E-2,8.535864812E-1,1.137893492E0
1.171807500E0,-1.960056853E-1,3.841079816E-2,7.150215036E-1,7.423943485E-1
1.181752500E0,1.010281920E-1,3.486650839E-2,2.642380142E-1,2.850335018E-1
1.191697500E0,-2.222994447E-2,3.544538274E-2,-4.283635104E-1,4.304019547E-1
1.201642500E0,-3.410183877E-1,1.823031740E-1,-1.064896669E0,1.132931111E0
1.211587500E0,-2.634310985E-1,4.261638609E-1,-1.386902250E0,1.474621793E0
1.221533500E0,5.540821552E-3,5.554709420E-1,-1.246403013E0,1.364587535E0
1.231478500E0,2.317906451E-1,4.823221280E-1,-1.041651063E0,1.171067238E0
1.241423500E0,1.048686433E-1,2.721039811E-1,-9.893056190E-1,1.031389168E0
1.251368500E0,-2.552982062E-1,8.648945577E-2,-9.281998765E-1,9.665467453E-1
1.261313500E0,-4.113095212E-1,-1.156481681E-1,-7.845846587E-1,8.933773602E-1
1.271258500E0,-1.073858696E-1,-2.303655325E-1,3.519848406E-1,4.341581873E-1
1.281203500E0,3.384736794E-1,-3.005662534E-1,1.997561479E0,2.048208087E0
1.291149500E0,5.542610800E-1,-8.697339327E-1,2.074611409E0,2.316820010E0
1.301094500E0,5.021740830E-1,-1.134863720E0,1.302133411E0,1.798790119E0
1.311039500E0,3.863559437E-1,-6.919103837E-1,-7.974491179E-2,7.964735685E-1
1.320984500E0,-2.107301438E-1,2.318163729E-1,-1.357791302E0,1.393464476E0
1.330929500E0,-1.139366807E0,5.253185320E-1,-2.395705994E0,2.704352694E0
1.340874500E0,-1.879267629E0,1.500869892E-1,-2.931963497E0,3.485768620E0
1.350820500E0,-2.272317465E0,-1.594912123E-1,-2.484701201E0,3.370846210E0
1.360765500E0,-2.487260528E0,-4.310004584E-1,-2.346226856E0,3.446303351E0
1.370710500E0,-2.591272554E0,-7.392715880E-1,-2.841585424E0,3.916098013E0
1.380655500E0,-2.533216134E0,-9.520870681E-1,-2.895304379E0,3.963135276E0
1.390600500E0,-2.286871769E0,-9.542626709E-1,-2.641509492E0,3.621874118E0
1.400545500E0,-1.457536615E0,-6.561754907E-1,-1.844300110E0,2.440578242E0
1.410491500E0,-7.960873014E-1,-2.643268188E-1,-7.958937585E-1,1.156317661E0
1.420436500E0,-3.311997432E-1,1.284108491E-1,4.524575472E-3,3.552507394E-1
1.430381500E0,1.571100068E-1,4.544317865E-1,3.758005500E-1,6.102604822E-1
1.440326500E0,1.612159216E-1,3.818019129E-1,-4.211807907E-2,4.165779719E-1
1.450271500E0,-2.759482330E-1,-7.220141888E-2,-1.139864990E0,1.175011774E0
1.460216500E0,-7.362720394E-1,-5.788486218E-1,-2.034510620E0,2.239731168E0
1.470162500E0,-1.210898720E0,-9.991084030E-1,-2.403475190E0,2.870746645E0
1.480107500E0,-1.621501898E0,-1.238519651E0,-2.754028632E0,3.427517037E0
1.490052500E0,-1.666536568E0,-1.396960923E0,-2.793769233E0,3.540337622E0
1.499997500E0,-9.283220834E-1,-1.423156010E0,-1.768592700E0,2.452564996E0
1.509942500E0,1.272874528E-1,-1.170196837E0,-2.947604799E-1,1.213444054E0
1.519887500E0,8.723080963E-1,-1.353732604E0,1.610258871E-1,1.618469250E0
1.529833500E0,5.965849811E-1,-1.766395755E0,-6.785167515E-2,1.865655770E0
1.539778500E0,2.888740879E-1,-2.087887366E0,-8.006808740E-1,2.254730972E0
1.549723500E0,-7.266802669E-1,-2.283958248E0,-1.537018987E0,2.847271827E0
1.559668500E0,-1.327779883E0,-2.535050991E0,-2.218038347E0,3.620659754E0
1.569613500E0,-1.326870641E0,-2.842627398E0,-2.825534817E0,4.221938325E0
1.579558500E0,-1.091891509E0,-3.140579873E0,-3.327588447E0,4.704074179E0
1.589504500E0,-5.293636358E-1,-3.384496474E0,-3.617277052E0,4.981940938E0
1.599449500E0,1.353308827E-1,-3.534272903E0,-3.597191867E0,5.044718894E0
1.609394500E0,6.450168836E-1,-3.933500322E0,-3.607638502E0,5.376200064E0
1.619339500E0,9.879297692E-1,-4.407283834E0,-3.594537231E0,5.772421842E0
1.629284500E0,1.370275108E0,-4.684568156E0,-3.596394891E0,6.062745986E0
1.639229500E0,1.920869399E0,-4.823276975E0,-3.497755871E0,6.260034837E0
1.649174500E0,2.471795227E0,-5.059237854E0,-3.350714770E0,6.552323922E0
1.659120500E0,2.594112546E0,-5.426766933E0,-3.150128961E0,6.789884514E0
1.669065500E0,2.287026136E0,-5.549038060E0,-2.974353180E0,6.698439279E0
1.679010500E0,1.947215198E0,-5.887787143E0,-2.654875642E0,6.745817159E0
1.688955500E0,1.596149540E0,-6.154855210E0,-1.989838769E0,6.662536629E0
1.698900500E0,1.159940820E0,-5.769072878E0,-1.148900400E0,5.995634804E0
1.708845500E0,7.090491575E-1,-4.922207186E0,-1.340170133E-1,4.974820082E0
1.718791500E0,6.187546992E-1,-3.938724809E0,8.885697877E-1,4.084845991E0
1.728736500E0,8.506634581E-1,-3.234185609E0,1.944059748E0,3.868197665E0
1.738681500E0,1.581751941E0,-2.596743793E0,3.028716498E0,4.291636186E0
1.748626500E0,2.262512269E0,-1.962754759E0,3.816018065E0,4.851119653E0
1.758571500E0,2.950089866E0,-1.388492108E0,4.461188146E0,5.525680069E0
1.768516500E0,3.821695127E0,-1.131693506E0,4.998971772E0,6.393418695E0
1.778462500E0,4.416632947E0,-6.493262815E-1,5.226927229E0,6.873793673E0
1.788407500E0,4.312307510E0,-3.554767978E-1,5.118000618E0,6.701961664E0
1.798353000E0,3.731977789E0,-3.357137936E-1,4.692848983E0,6.005263820E0
1.808298000E0,2.968432581E0,-4.400877625E-1,4.027600733E0,5.022632467E0
1.818243000E0,2.199373450E0,-6.258309996E-1,3.223882231E0,3.952508652E0
1.828188000E0,1.589688951E0,-5.543932271E-1,2.417006232E0,2.945569883E0
1.838134000E0,9.316286838E-1,-2.497380888E-1,1.640083910E0,1.902676102E0
1.848079000E0,5.596703392E-1,5.436565697E-2,9.469162291E-1,1.101288726E0
1.858024000E0,5.527454817E-1,4.338967305E-1,5.711729819E-1,9.055564673E-1
1.867969000E0,6.176665324E-1,9.779438943E-1,3.976628508E-1,1.223119760E0
1.877914000E0,5.426514333E-1,1.531339586E0,1.692172515E-1,1.633433802E0
1.887859000E0,4.164433765E-1,2.026301714E0,-2.210329378E-1,2.080427668E0
1.897804000E0,3.306425035E-1,2.442553301E0,-5.507539201E-1,2.525612990E0
1.907750000E0,3.565579480E-1,2.789836396E0,-5.738831663E-1,2.870481245E0
1.917695000E0,3.861050981E-1,2.965967980E0,-3.434673478E-1,3.010649934E0
1.927640000E0,3.097088867E-1,3.109375622E0,-7.987238109E-2,3.125782454E0
1.937585000E0,1.680027848E-1,3.108525437E0,3.453903508E-1,3.132163760E0
1.947530000E0,1.628683448E-2,3.094941770E0,7.524267268E-1,3.185133561E0
1.957475000E0,-4.618130922E-2,3.185112852E0,9.998713915E-1,3.338685279E0
1.967421000E0,-1.247994626E-1,3.153463628E0,1.217492187E0,3.382631369E0
1.977366000E0,-2.753313518E-1,3.105246318E0,1.283469829E0,3.371298986E0
1.987311000E0,-3.880124599E-1,3.164599650E0,1.171048045E0,3.396556806E0
1.997256000E0,-2.649274009E-1,3.192196169E0,1.052753756E0,3.371734476E0
2.007201000E0,3.294379771E-2,3.263232822E0,9.598539247E-1,3.401630977E0
2.017146000E0,3.944958526E-1,3.374822840E0,9.499861635E-1,3.528105709E0
2.027092000E0,5.385367477E-1,3.493613704E0,6.232289886E-1,3.589397291E0
2.037037000E0,7.726569235E-1,3.455052486E0,4.260082519E-1,3.565931776E0
2.046982000E0,9.056489199E-1,3.254820433E0,2.197769558E-1,3.385610422E0
2.056927000E0,9.638503504E-1,3.072166280E0,-1.192115709E-2,3.219837770E0
2.066872000E0,1.058456545E0,2.854328846E0,1.338076830E-2,3.044290141E0
2.076817000E0,1.108781776E0,2.769156548E0,2.374203444E-1,2.992322415E0
2.086762000E0,1.220954762E0,2.779543542E0,4.599155246E-1,3.070523591E0
2.096708000E0,1.507737300E0,2.791248499E0,6.192316858E-1,3.232303796E0
2.106653000E0,2.006076195E0,2.871637774E0,7.724815071E-1,3.587112053E0
2.116598000E0,2.666005817E0,2.938906481E0,9.407022469E-1,4.077950348E0
2.126543000E0,3.345606642E0,2.879791131E0,1.105158842E0,4.550566649E0
2.136488000E0,3.734029577E0,2.551087564E0,1.188474063E0,4.675841661E0
2.146433000E0,3.857283620E0,1.858435754E0,1.246212394E0,4.459312246E0
2.156379000E0,3.620867828E0,1.020553139E0,1.249557002E0,3.964039005E0
2.166324000E0,3.564120600E0,2.350896442E-1,1.279439782E0,3.794099227E0
2.176269000E0,3.474624871E0,-4.674468845E-1,1.419043225E0,3.782222661E0
2.186214000E0,3.339510335E0,-8.724993002E-1,1.530918002E0,3.775883239E0
2.196159000E0,3.208067266E0,-9.588691074E-1,1.722717201E0,3.765485374E0
2.206104000E0,3.464726704E0,-6.822478598E-1,2.112311332E0,4.114808919E0
2.216050000E0,4.112269585E0,-1.643026668E-1,2.434999868E0,4.781943210E0
2.225995000E0,4.938068928E0,3.206373328E-1,2.573219860E0,5.577525750E0
2.235940000E0,5.180780418E0,3.018543220E-1,3.012059242E0,6.000341878E0
2.245885000E0,4.611477376E0,-1.234896863E-1,3.514826818E0,5.799567298E0
2.255830000E0,4.010831503E0,-1.902186960E-1,3.859695597E0,5.569578314E0
2.265775000E0,3.686078315E0,1.563194633E-1,4.142004431E0,5.546873879E0
2.275720000E0,3.449628609E0,5.527425581E-1,4.341526047E0,5.572639437E0
2.285666000E0,3.179732829E0,9.453544378E-1,4.261025675E0,5.400068118E0
2.295611000E0,2.929581926E0,1.396353689E0,3.957873856E0,5.118302389E0
2.305556000E0,2.847351363E0,1.800136090E0,3.586713656E0,4.920611200E0
2.315501000E0,2.735264332E0,2.136342219E0,3.274488128E0,4.771572230E0
2.325446000E0,2.577419330E0,2.203401597E0,2.951093248E0,4.495221948E0
2.335391000E0,2.383620384E0,1.966631463E0,2.441115325E0,3.938061639E0
2.345337000E0,2.286752486E0,1.535273008E0,2.058018619E0,3.438275844E0
2.355282000E0,2.302907174E0,1.045388603E0,1.798628093E0,3.103430650E0
2.365227000E0,2.167654644E0,5.535822183E-1,1.545154803E0,2.718948931E0
2.375172000E0,2.111671062E0,-8.277844727E-2,1.731981090E0,2.732355292E0
2.385117000E0,2.623485450E0,-7.202921838E-1,1.706355522E0,3.211408710E0
2.395062000E0,2.002125816E0,-1.052378950E0,8.463141529E-1,2.415006601E0
2.405007000E0,1.540929020E0,-1.225174112E0,8.602349116E-1,2.148375655E0
2.414953000E0,1.046772639E0,-1.024133974E0,1.153943185E0,1.864448506E0
2.424898000E0,3.763841021E-1,-9.407912707E-1,1.298418674E0,1.647010705E0
2.434843000E0,-9.919684410E-2,-7.867931521E-1,1.664806523E0,1.844034771E0
2.444788000E0,-4.887880522E-1,-6.772467363E-1,2.090557351E0,2.251223432E0
2.454733000E0,-6.315893376E-1,-6.817947006E-1,2.299272544E0,2.480000673E0
2.464678000E0,-4.964929283E-1,-8.139569771E-1,2.349993047E0,2.536039927E0
2.474624000E0,-3.648498845E-1,-8.234844303E-1,2.393626724E0,2.557477457E0
2.484569000E0,-3.997098148E-1,-6.595822978E-1,2.432588038E0,2.551921101E0
2.494514000E0,-6.781360978E-1,-4.159282368E-1,2.556598565E0,2.677510240E0
2.504459000E0,-1.031141278E0,-1.857923537E-1,2.622277415E0,2.823846662E0
2.514404000E0,-1.381343887E0,5.548422933E-3,2.627780814E0,2.968732680E0
2.524349000E0,-1.623658351E0,1.826635087E-1,2.638364859E0,3.103321048E0
2.534295000E0,-1.765833984E0,4.363829666E-1,2.457914522E0,3.057767739E0
2.544240000E0,-1.743735602E0,8.218056947E-1,1.978039234E0,2.761995232E0
2.554185000E0,-1.705338691E0,1.220403954E0,1.455404136E0,2.552600059E0
2.564130000E0,-1.816174418E0,1.566584263E0,9.704001090E-1,2.587344612E0
2.574075000E0,-2.031978775E0,1.799201705E0,3.641242450E-1,2.738366481E0
2.584020000E0,-2.149064591E0,1.897275006E0,-1.924435616E-1,2.873180396E0
2.593965000E0,-2.279623561E0,1.934182047E0,-6.612459768E-1,3.061860547E0
2.603911000E0,-2.457696421E0,1.927835187E0,-9.415391296E-1,3.262409560E0
2.613856000E0,-2.570303854E0,1.839167716E0,-1.008613710E0,3.317574627E0
2.623801000E0,-2.642371371E0,1.639049392E0,-9.017160827E-1,3.237545562E0
2.633746000E0,-2.598331897E0,1.244482203E0,-7.351651615E-1,2.973303284E0
2.643691000E0,-2.471271901E0,7.436222818E-1,-6.306339025E-1,2.656662949E0
2.653636000E0,-2.279836400E0,2.167100912E-1,-6.520646788E-1,2.381135363E0
2.663581000E0,-2.122108927E0,-3.413405693E-1,-7.112114578E-1,2.263996780E0
2.673527000E0,-1.903741735E0,-1.081181749E0,-8.083430654E-1,2.333796280E0
2.683472000E0,-1.800641874E0,-1.968390597E0,-8.758585256E-1,2.807846303E0
2.693417000E0,-1.984952543E0,-2.867958998E0,-8.229134497E-1,3.583631114E0
2.703362000E0,-2.213972193E0,-3.690352630E0,-8.392704508E-1,4.384603779E0
2.713307000E0,-2.193153182E0,-4.447062442E0,-9.278543061E-1,5.044521668E0
2.723252000E0,-2.093188013E0,-5.157599716E0,-9.106421497E-1,5.640171985E0
2.733198000E0,-1.946983649E0,-5.788239466E0,-8.778220206E-1,6.169686616E0
2.743143000E0,-1.857798992E0,-6.370708684E0,-8.179436088E-1,6.686282822E0
2.753088000E0,-1.790703362E0,-6.854669275E0,-6.646262522E-1,7.115816007E0
2.763033000E0,-1.833887388E0,-7.316665969E0,-5.839054401E-1,7.565559426E0
2.772978000E0,-2.051457020E0,-7.663664305E0,-4.685040611E-1,7.947309138E0
2.782923000E0,-2.219026526E0,-7.996769071E0,-3.026473506E-1,8.304456015E0
2.792869000E0,-2.304557258E0,-8.275684181E0,-2.238713224E-1,8.593488883E0
2.802813875E0,-2.593182839E0,-8.206263113E0,-4.447050163E-1,8.617720932E0
2.812758875E0,-2.917406854E0,-8.079506587E0,-8.733968478E-1,8.634379625E0
2.822703875E0,-2.939235095E0,-8.047139325E0,-1.481661788E0,8.694301347E0
2.832648875E0,-2.937099692E0,-8.105177618E0,-2.004362376E0,8.850871559E0
2.842593875E0,-3.149968162E0,-8.111268663E0,-2.124675124E0,8.957076706E0
2.852538875E0,-3.459677634E0,-7.855709671E0,-2.019573907E0,8.818175692E0
2.862484875E0,-3.257825902E0,-7.862509983E0,-1.648122078E0,8.668840708E0
2.872429875E0,-3.097217506E0,-7.250127579E0,-1.086024559E0,7.958426700E0
2.882374875E0,-3.233672224E0,-6.093705028E0,-6.063502698E-1,6.925138098E0
2.892319875E0,-3.255042627E0,-4.687133330E0,-2.639905308E-1,5.712636200E0
2.902264875E0,-3.074750749E0,-3.353039623E0,-4.545040727E-2,4.549618954E0
2.912209875E0,-2.732634839E0,-2.208945049E0,2.573203196E-1,3.523200980E0
2.922155875E0,-2.243349189E0,-1.355153916E0,5.345449997E-1,2.674845056E0
2.932100875E0,-1.583549960E0,-8.562282532E-1,5.372901213E-1,1.878679848E0
2.942045875E0,-8.886235821E-1,-6.915794313E-1,4.345362698E-1,1.206961371E0
2.951990875E0,-5.415024555E-1,-9.264386952E-1,2.917478482E-1,1.112038836E0
2.961935875E0,-2.743384945E-1,-1.488464293E0,3.570953071E-2,1.513955987E0
2.971880875E0,-1.507096446E-1,-1.995475777E0,-6.991632700E-2,2.002379901E0
2.981825875E0,-1.229394633E-1,-2.172211379E0,1.723775985E-1,2.182505538E0
2.991771875E0,2.769516152E-1,-2.275941862E0,6.131489736E-1,2.373302597E0
3.001716875E0,8.187072551E-1,-2.231904142E0,1.228589471E0,2.676024991E0
3.011661875E0,1.320984249E0,-2.227421374E0,1.678021084E0,3.085799754E0
3.021606875E0,1.737169179E0,-2.090990630E0,1.632969457E0,3.171212358E0
3.031551875E0,1.870295076E0,-1.666687426E0,1.280875858E0,2.813626417E0
3.041496875E0,1.423818646E0,-1.071068405E0,9.583201269E-1,2.023073041E0
3.051442875E0,7.592305470E-1,-4.384096116E-1,7.979918126E-1,1.185506197E0
3.061387875E0,1.661059481E-1,6.759381294E-3,5.598264599E-1,5.839884763E-1
3.071332875E0,-2.463086969E-1,6.161076647E-1,2.534276088E-1,7.102690910E-1
3.081277875E0,-5.243946719E-1,1.366334084E0,6.331189692E-2,1.464877810E0
3.091222875E0,-6.813111359E-1,1.825418866E0,-2.538276315E-2,1.948584918E0
3.101167875E0,-7.315012962E-1,2.237345268E0,3.759745046E-2,2.354192338E0
3.111112875E0,-9.292494518E-1,2.560645423E0,3.131585978E-2,2.724222863E0
3.121058875E0,-1.014412394E0,2.792248372E0,2.015745735E-1,2.977635939E0
3.131003875E0,-6.751879317E-1,3.083316336E0,4.872424138E-1,3.193763225E0
3.140948875E0,-1.536361760E-1,3.409081092E0,6.397742701E-1,3.471994972E0
3.150893875E0,9.780468053E-1,3.451436568E0,5.011398567E-1,3.622172151E0
3.160838875E0,1.484999818E0,3.686951889E0,1.019559990E-1,3.976082710E0
3.170783875E0,1.026213244E0,4.037644495E0,3.027797900E-1,4.177003985E0
3.180728875E0,1.121724004E0,4.390833278E0,1.054172729E0,4.652844480E0
3.190674875E0,1.552054517E0,4.587012625E0,1.267911996E0,5.005712625E0
3.200619875E0,2.013631967E0,4.529724530E0,1.173429762E0,5.094119691E0
3.210564875E0,2.151967149E0,4.182471256E0,1.084768431E0,4.827085142E0
3.220509875E0,2.165570111E0,3.679752213E0,1.082181038E0,4.404700450E0
3.230454875E0,2.439313944E0,3.231996996E0,9.937663136E-1,4.169367888E0
3.240399875E0,2.796021581E0,2.966105390E0,9.532380925E-1,4.186189284E0
3.250345875E0,2.919536995E0,2.860836797E0,1.021565292E0,4.213274153E0
3.260290875E0,2.699943641E0,2.763852539E0,1.122469085E0,4.023495169E0
3.270235875E0,2.372160426E0,2.669527595E0,1.176368573E0,3.759968841E0
3.280180875E0,2.089691378E0,2.680857745E0,1.175147528E0,3.596495519E0
3.290125875E0,1.932553890E0,2.744953753E0,1.022055289E0,3.509149848E0
3.300070875E0,1.991213742E0,2.848488647E0,9.062364189E-1,3.591668719E0
3.310015875E0,2.200630016E0,2.899441869E0,9.424327303E-1,3.760015302E0
3.319961875E0,2.492542902E0,2.779957525E0,8.673250991E-1,3.833169288E0
3.329906875E0,2.787470613E0,2.476464813E0,6.669392645E-1,3.787832939E0
3.339851875E0,2.998431721E0,1.986604967E0,4.213240474E-1,3.621423206E0
3.349796875E0,3.033570564E0,1.406403299E0,1.553831778E-1,3.347336932E0
3.359741875E0,2.874843802E0,8.789938027E-1,-9.665169731E-2,3.007773020E0
3.369686875E0,2.586225822E0,5.604257995E-1,-2.270200481E-1,2.655970478E0
3.379631875E0,2.363522919E0,3.962389076E-1,-3.046938761E-1,2.415798878E0
3.389577875E0,2.351120975E0,2.892114723E-1,-3.028733455E-1,2.388125913E0
3.399522875E0,2.478954558E0,2.821842885E-1,-1.859829730E-1,2.501885956E0
3.409467875E0,2.624726229E0,3.316482246E-1,2.988468066E-2,2.645764807E0
3.419412875E0,2.741567631E0,2.488937509E-1,2.602363260E-1,2.765115571E0
3.429357875E0,2.822437547E0,7.336501479E-2,4.095879547E-1,2.852945570E0
3.439302875E0,2.728049453E0,-3.281282008E-2,5.872843268E-1,2.790740651E0
3.449248875E0,2.357005613E0,-1.851754725E-2,8.941345098E-1,2.520971019E0
3.459193875E0,1.822782356E0,2.881624818E-2,1.122367124E0,2.140811495E0
3.469138875E0,1.278627604E0,1.043687063E-1,1.359735063E0,1.869401192E0
3.479083875E0,8.448443091E-1,2.431131935E-1,1.562678908E0,1.792995064E0
3.489028875E0,5.746099752E-1,4.576352566E-1,1.746620033E0,1.894805582E0
3.498973875E0,4.040379238E-1,8.362553340E-1,2.152050910E0,2.343905448E0
3.508918875E0,1.795586371E-1,1.193788013E0,2.500782214E0,2.776919661E0
3.518864875E0,1.335083055E-1,1.517048407E0,2.722780527E0,3.119742639E0
3.528809875E0,2.208616143E-1,1.618580044E0,2.749165503E0,3.197888706E0
3.538754875E0,5.322042131E-1,1.429771696E0,2.675017546E0,3.079481661E0
3.548699875E0,1.100814945E0,1.111827006E0,2.769346583E0,3.180759867E0
3.558644875E0,1.526190528E0,6.405104345E-1,2.827065033E0,3.275943810E0
3.568589875E0,1.736944646E0,7.400119185E-2,2.705577434E0,3.215991624E0
3.578534875E0,1.783124201E0,-4.708359307E-1,2.355032762E0,2.991220102E0
3.588480875E0,1.737314190E0,-9.547830731E-1,1.926269302E0,2.764124588E0
3.598425875E0,1.629242442E0,-1.428095884E0,1.676769195E0,2.739606490E0
3.608370875E0,1.512114526E0,-1.720884098E0,1.568288727E0,2.776231610E0
3.618315875E0,1.309982713E0,-1.851443068E0,1.576843203E0,2.762305311E0
3.628260875E0,9.588732004E-1,-1.825422374E0,1.541874515E0,2.574680888E0
3.638205875E0,6.795704198E-1,-1.634946985E0,1.473896540E0,2.303744476E0
3.648151875E0,5.409405380E-1,-1.174392799E0,1.481854016E0,1.966648528E0
3.658096875E0,4.076251906E-1,-5.601252526E-1,1.540246065E0,1.688862498E0
3.668041875E0,3.573350430E-1,-6.678689718E-3,1.800512651E0,1.835641235E0
3.677986875E0,4.724433303E-1,4.560816514E-1,2.039814044E0,2.142907956E0
3.687931875E0,6.659089851E-1,8.679039735E-1,2.209179230E0,2.465190653E0
3.697876875E0,8.826687777E-1,1.122940809E0,2.253025746E0,2.667625395E0
3.707821875E0,1.086645387E0,1.335270751E0,2.159299703E0,2.761579509E0
3.717767875E0,1.065674348E0,1.429692174E0,2.008660079E0,2.685962927E0
3.727712875E0,8.719806522E-1,1.412553985E0,1.709654521E0,2.382976626E0
3.737657875E0,5.600077236E-1,1.283968450E0,1.318911996E0,1.923983494E0
3.747602875E0,1.267021465E-1,1.040747668E0,1.007255986E0,1.453882308E0
3.757547875E0,-5.007947248E-1,7.312065965E-1,6.173272477E-1,1.080070078E0
3.767492875E0,-1.132388155E0,4.733747917E-1,1.890743959E-1,1.241827587E0
3.777437875E0,-1.546747584E0,1.556166279E-1,-2.415275748E-1,1.573206977E0
3.787383875E0,-1.917995492E0,-2.311953986E-1,-6.136009634E-1,2.026984007E0
3.797328375E0,-2.422949926E0,-5.749725026E-1,-1.011068371E0,2.687664223E0
3.807273375E0,-2.898857732E0,-9.478710794E-1,-1.381540353E0,3.348206905E0
3.817218375E0,-3.337387211E0,-1.298639992E0,-1.635356875E0,3.936878374E0
3.827163375E0,-3.856162709E0,-1.575995357E0,-1.834186181E0,4.551702006E0
3.837108375E0,-4.322064759E0,-1.780412847E0,-2.032861266E0,5.097316805E0
3.847053375E0,-4.641847229E0,-2.030156491E0,-2.234607163E0,5.537305324E0
3.856999375E0,-4.810608982E0,-2.217220321E0,-2.392522185E0,5.812244587E0
3.866944375E0,-4.656156535E0,-2.359848529E0,-2.432158706E0,5.758825812E0
3.876889375E0,-4.374501420E0,-2.517661664E0,-2.372612416E0,5.577111493E0
3.886834375E0,-4.072233115E0,-2.641941309E0,-2.197761811E0,5.328516998E0
3.896779375E0,-3.728905077E0,-2.735504360E0,-2.103579831E0,5.080626466E0
3.906724375E0,-3.357184714E0,-2.803212194E0,-1.950737561E0,4.788952374E0
3.916669375E0,-2.982213299E0,-2.895622467E0,-1.813779544E0,4.535198107E0
3.926615375E0,-2.572671391E0,-3.126091642E0,-1.709518427E0,4.394717317E0
3.936560375E0,-2.180028521E0,-3.476900023E0,-1.473847569E0,4.360456946E0
3.946505375E0,-1.986619000E0,-3.761637205E0,-1.252567733E0,4.434579511E0
3.956450375E0,-1.815849897E0,-3.813137727E0,-1.222082543E0,4.396682376E0
3.966395375E0,-1.629047729E0,-3.768079668E0,-1.289714509E0,4.302973902E0
3.976340375E0,-1.482704785E0,-3.768322327E0,-1.491154012E0,4.315345517E0
3.986286375E0,-1.343929893E0,-3.940110307E0,-1.733139862E0,4.509366981E0
3.996231375E0,-1.196369559E0,-4.191677405E0,-1.939059502E0,4.770892091E0
4.006176375E0,-1.221327814E0,-4.443573409E0,-1.948795116E0,5.003477658E0
4.016121375E0,-1.177655545E0,-4.794134745E0,-1.897094035E0,5.288626127E0
4.026066375E0,-9.960913128E-1,-5.148630087E0,-1.824252346E0,5.552340615E0
4.036011375E0,-1.054873956E0,-5.453308030E0,-1.614449717E0,5.784269653E0
4.045956375E0,-1.295145988E0,-5.699255369E0,-1.305899017E0,5.988679916E0
4.055902375E0,-1.565510130E0,-5.704933015E0,-7.721932393E-1,5.966017522E0
4.065847375E0,-1.665907407E0,-5.359825670E0,-1.071334161E-2,5.612761662E0
4.075792375E0,-1.459846265E0,-4.531324621E0,7.147717544E-1,4.814037037E0
4.085737375E0,-1.264387295E0,-3.365848534E0,1.256966593E0,3.808881279E0
4.095682375E0,-9.241343075E-1,-2.105863608E0,1.621976691E0,2.814159580E0
4.105627375E0,-3.780283391E-1,-9.095425808E-1,1.837696118E0,2.085018023E0
4.115572375E0,3.775453591E-1,6.389603376E-2,1.966355913E0,2.003291985E0
4.125518375E0,1.244113829E0,8.870419103E-1,2.099855009E0,2.596931579E0
4.135463375E0,2.134601503E0,1.471807330E0,2.288790241E0,3.458511408E0
4.145408375E0,2.792941267E0,1.770950298E0,2.373004764E0,4.070373139E0
4.155353375E0,3.220622993E0,1.737386695E0,2.354767883E0,4.351534990E0
4.165298375E0,3.467418178E0,1.373502771E0,2.193072490E0,4.326553551E0
4.175243375E0,3.382785578E0,6.906380296E-1,1.954591461E0,3.967448416E0
4.185188375E0,3.377454087E0,-1.081489313E-1,1.826806410E0,3.841368761E0
4.195134375E0,2.852281736E0,-6.350491351E-1,1.560982631E0,3.312923977E0
4.205079375E0,2.056156427E0,-7.392435944E-1,1.216820780E0,2.500982438E0
4.215024375E0,1.365026647E0,-8.450390214E-1,8.498998848E-1,1.816512733E0
4.224969375E0,7.697455949E-1,-9.767013609E-1,6.312408435E-1,1.394603468E0
4.234914375E0,2.593497419E-1,-9.574634367E-1,4.948831533E-1,1.108561165E0
4.244859375E0,-3.641739464E-1,-7.744128424E-1,5.176966498E-1,1.000173852E0
4.254804375E0,-9.210528249E-1,-4.015376544E-1,7.302382976E-1,1.242102558E0
4.264750375E0,-1.231967992E0,8.467352986E-3,9.649105237E-1,1.564886305E0
4.274695375E0,-1.311476092E0,3.802385867E-1,1.197072394E0,1.815911132E0
4.284640375E0,-1.319806620E0,8.447940230E-1,1.372260822E0,2.082946523E0
4.294585375E0,-1.323339508E0,1.293726869E0,1.451527432E0,2.351996715E0
4.304530375E0,-1.236717101E0,1.715181309E0,1.457836577E0,2.568385406E0
4.314475375E0,-1.170548254E0,2.097144824E0,1.392985108E0,2.776437851E0
4.324421375E0,-1.119867513E0,2.394315526E0,1.318314995E0,2.953778007E0
4.334366375E0,-1.128626642E0,2.564124516E0,1.153706519E0,3.029780745E0
4.344311375E0,-1.144794778E0,2.676752415E0,1.006173740E0,3.080250666E0
4.354256375E0,-1.143402556E0,2.738383822E0,7.976922890E-1,3.072853454E0
4.364201375E0,-1.146990407E0,2.751033688E0,5.692024702E-1,3.034429897E0
4.374146375E0,-1.131388282E0,2.751932990E0,3.312658167E-1,2.993812230E0
4.384091375E0,-9.592187709E-1,2.749685320E0,5.688229859E-2,2.912748806E0
4.394037375E0,-6.843762463E-1,2.738519477E0,-2.257551491E-1,2.831753019E0
4.403982375E0,-4.325097710E-1,2.668310205E0,-4.836495191E-1,2.746062801E0
4.413927375E0,-1.215197593E-1,2.588023256E0,-6.322986048E-1,2.666914500E0
4.423872375E0,2.586317039E-1,2.633489451E0,-6.446483628E-1,2.723550726E0
4.433817375E0,6.193096000E-1,2.828291779E0,-5.125985721E-1,2.940329244E0
4.443762375E0,9.411134523E-1,2.968412701E0,-3.858903591E-1,3.137846373E0
4.453707375E0,1.141640205E0,3.060545524E0,-3.466982268E-1,3.284886744E0
4.463653375E0,1.254088009E0,3.047257141E0,-3.634639482E-1,3.315210229E0
4.473598375E0,1.427029937E0,2.864745076E0,-4.353035706E-1,3.229964085E0
4.483543375E0,1.575251006E0,2.533712563E0,-4.689222101E-1,3.020099853E0
4.493488375E0,1.603027035E0,2.163415997E0,-4.309216672E-1,2.726858620E0
4.503433375E0,1.629374589E0,1.802501289E0,-3.987327451E-1,2.462287605E0
4.513378375E0,1.823736037E0,1.449943421E0,-4.775140357E-1,2.378312156E0
4.523323375E0,2.121554026E0,1.151436630E0,-5.531431655E-1,2.476442036E0
4.533269375E0,2.375068831E0,8.838996166E-1,-6.692262568E-1,2.621086467E0
4.543214375E0,2.476533226E0,6.904532576E-1,-7.605087483E-1,2.681103518E0
4.553159375E0,2.527547259E0,4.430587327E-1,-7.839683622E-1,2.683170248E0
4.563104375E0,2.613530565E0,-2.606864154E-2,-7.825937549E-1,2.728309838E0
4.573049375E0,2.706628763E0,-5.640785551E-1,-7.676809430E-1,2.869382844E0
4.582994375E0,2.756238880E0,-9.586855048E-1,-6.054026554E-1,2.980342771E0
4.592939375E0,2.815486377E0,-1.260714658E0,-3.439889194E-1,3.103980246E0
4.602885375E0,2.905865620E0,-1.468625860E0,-9.277090028E-2,3.257226329E0
4.612830375E0,3.077445731E0,-1.526265957E0,1.357904738E-1,3.437818938E0
4.622775375E0,3.298237179E0,-1.379616035E0,2.578657186E-1,3.584439094E0
4.632720375E0,3.552033820E0,-1.208295540E0,2.802628934E-1,3.762375534E0
4.642665375E0,3.566073570E0,-1.184859899E0,3.577548730E-1,3.774753268E0
4.652610375E0,3.184568476E0,-1.054299760E0,5.364586473E-1,3.397177099E0
4.662555375E0,2.615288238E0,-6.905146533E-1,7.649830377E-1,2.811003753E0
4.672501375E0,2.179554312E0,-1.667316002E-1,8.796896213E-1,2.356291632E0
4.682446375E0,1.953352436E0,4.087338227E-1,8.910547813E-1,2.185549748E0
4.692391375E0,1.780414016E0,9.924379724E-1,8.951911747E-1,2.226246715E0
4.702336375E0,1.694416092E0,1.592868667E0,8.225477064E-1,2.466751145E0
4.712281375E0,1.701446199E0,2.181429514E0,7.545960438E-1,2.867571984E0
4.722226375E0,1.757947844E0,2.580235934E0,6.470758344E-1,3.188527126E0
4.732171375E0,1.842997935E0,2.748452142E0,5.485175063E-1,3.354325867E0
4.742117375E0,1.942632735E0,2.743459205E0,4.792798948E-1,3.395600031E0
4.752062375E0,2.068237944E0,2.480208786E0,4.346299714E-1,3.258519146E0
4.762007375E0,2.172034793E0,1.883331444E0,3.546703206E-1,2.896629680E0
4.771952375E0,2.177094389E0,1.063969300E0,2.154896311E-1,2.432736408E0
4.781897375E0,2.193630899E0,1.581432098E-1,3.722191304E-3,2.199327091E0
4.791842375E0,2.089497836E0,-7.345599747E-1,-5.277170599E-2,2.215482885E0
4.801787625E0,1.880837606E0,-1.429834846E0,-1.217286511E-1,2.365754774E0
4.811733625E0,1.605817911E0,-1.855377660E0,-2.078989951E-1,2.462579829E0
4.821678625E0,1.308022141E0,-1.933604050E0,-9.332857847E-2,2.336334044E0
4.831623625E0,1.112129307E0,-1.760625869E0,1.555359364E-1,2.088259197E0
4.841568625E0,9.205026019E-1,-1.358823920E0,5.578372371E-1,1.733467586E0
4.851513625E0,8.014737564E-1,-8.234148484E-1,1.044295612E0,1.552715531E0
4.861458625E0,7.449446297E-1,-2.451392537E-1,1.487763212E0,1.681807102E0
4.871403625E0,7.456153053E-1,2.024838156E-1,1.872881300E0,2.025987720E0
4.881349625E0,7.759851587E-1,5.340636277E-1,2.151544395E0,2.348727359E0
4.891294625E0,8.694651800E-1,8.518820179E-1,2.377997117E0,2.671430883E0
4.901239625E0,9.463268298E-1,1.178743127E0,2.575117866E0,2.986000980E0
4.911184625E0,9.022031558E-1,1.401504502E0,2.567392525E0,3.060994900E0
4.921129625E0,7.132503819E-1,1.477677349E0,2.404099088E0,2.910661244E0
4.931074625E0,4.802645659E-1,1.428106994E0,2.093665731E0,2.579453398E0
4.941019625E0,1.919284219E-1,1.255779608E0,1.686652305E0,2.111543261E0
4.950965625E0,-5.311142921E-2,9.969064146E-1,1.259528989E0,1.607189005E0
4.960910625E0,-2.836846840E-1,7.581394565E-1,9.137467289E-1,1.220731551E0
4.970855625E0,-6.401806515E-1,4.333190256E-1,7.316965932E-1,1.064413711E0
4.980800625E0,-1.100623741E0,8.561785519E-2,5.497343118E-1,1.233252144E0
4.990745625E0,-1.577700405E0,-2.280180216E-1,2.860487133E-1,1.619553844E0
5.000690625E0,-2.195778582E0,-5.382601744E-1,-5.244718552E-2,2.261397422E0
5.010635625E0,-2.811673992E0,-7.113073522E-1,-2.203722755E-1,2.908613540E0
5.020581625E0,-3.321247727E0,-8.112599489E-1,-3.562182979E-1,3.437400274E0
5.030526625E0,-3.709953666E0,-8.138575745E-1,-5.101538513E-1,3.832280954E0
5.040471625E0,-3.952527162E0,-8.154281366E-1,-6.978103705E-1,4.095648096E0
5.050416625E0,-4.076227933E0,-8.741710192E-1,-8.349537438E-1,4.251700470E0
5.060361625E0,-4.121043332E0,-9.315178791E-1,-8.416872512E-1,4.308034486E0
5.070306625E0,-4.131996337E0,-1.015628907E0,-8.034992319E-1,4.330185541E0
5.080251625E0,-4.056960772E0,-1.161370172E0,-8.708657344E-1,4.308841899E0
5.090197625E0,-3.877884530E0,-1.460200899E0,-9.442436130E-1,4.249914246E0
5.100142625E0,-3.597050364E0,-1.868842043E0,-1.023426169E0,4.180758666E0
5.110087625E0,-3.318303654E0,-2.404729125E0,-1.087387399E0,4.239843471E0
5.120032625E0,-3.154785683E0,-2.942777338E0,-1.135150380E0,4.461073588E0
5.129977625E0,-3.039415441E0,-3.393955807E0,-1.264090256E0,4.728097547E0
5.139922625E0,-2.906166167E0,-3.872177940E0,-1.405785687E0,5.041408254E0
5.149867625E0,-2.734185521E0,-4.278746831E0,-1.544506200E0,5.307442351E0
5.159813625E0,-2.497276808E0,-4.489651222E0,-1.752306451E0,5.428069404E0
5.169758625E0,-2.157678709E0,-4.644217398E0,-2.023787849E0,5.506364491E0
5.179703625E0,-1.748068389E0,-4.815895450E0,-2.226254416E0,5.586125742E0
5.189648625E0,-1.172757332E0,-4.992861432E0,-2.165632238E0,5.567224446E0
5.199593625E0,-7.060290706E-1,-5.174407538E0,-1.946514117E0,5.573319264E0
5.209538625E0,-3.247596198E-1,-5.250624239E0,-1.761594753E0,5.547768902E0
5.219483625E0,4.496274948E-2,-5.229645599E0,-1.643779204E0,5.482082160E0
5.229429625E0,3.678091604E-1,-5.195059319E0,-1.514083722E0,5.423686423E0
5.239374625E0,4.483668351E-1,-5.240382257E0,-1.350440183E0,5.430131463E0
5.249319625E0,3.633208376E-1,-5.311173327E0,-1.269315474E0,5.472817000E0
5.259264625E0,1.466662949E-1,-5.335476109E0,-1.221289368E0,5.475432772E0
5.269209625E0,-2.296844780E-2,-5.225929109E0,-1.088801256E0,5.338197334E0
5.279154625E0,-2.112043530E-1,-4.782342373E0,-7.695263974E-1,4.848461274E0
5.289099625E0,-3.593143255E-1,-3.886604775E0,-3.344483831E-1,3.917481230E0
5.299044625E0,-2.742373377E-1,-2.759851582E0,2.111020267E-2,2.773523483E0
5.308990625E0,1.775740921E-2,-1.524760884E0,2.666119838E-1,1.547996456E0
5.318935625E0,1.885808909E-1,-3.302729595E-1,4.800242454E-1,6.124265314E-1
5.328880625E0,7.491639805E-1,6.465003222E-1,6.992673504E-1,1.211686496E0
5.338825625E0,1.723972598E0,1.272704374E0,8.933604846E-1,2.321626778E0
5.348770625E0,2.744597073E0,1.538729298E0,1.062492878E0,3.321052854E0
5.358715625E0,3.548499178E0,1.465636763E0,1.167555649E0,4.012869763E0
5.368660625E0,3.849745975E0,1.083429419E0,1.220767651E0,4.181463503E0
5.378606625E0,3.697897292E0,4.698383957E-1,1.196611633E0,3.914980447E0
5.388551625E0,3.170845061E0,-1.821477842E-1,1.026893275E0,3.337955364E0
5.398496625E0,2.271038679E0,-6.306800956E-1,8.191563213E-1,2.495273761E0
5.408441625E0,1.312944912E0,-9.363386160E-1,6.361642722E-1,1.733568380E0
5.418386625E0,5.094310623E-1,-1.085308714E0,4.128754786E-1,1.268022544E0
5.428331625E0,-2.290284204E-1,-1.060339349E0,1.698429036E-1,1.098007361E0
5.438276625E0,-7.669050175E-1,-7.781527215E-1,-7.370174132E-2,1.095032835E0
5.448222625E0,-1.044640744E0,-3.060584700E-1,-2.330068660E-1,1.113210794E0
5.458167625E0,-1.053494598E0,2.964210892E-1,-1.833522376E-1,1.109655070E0
5.468112625E0,-1.118974643E0,9.126334190E-1,1.491485111E-1,1.451636761E0
5.478057625E0,-1.162651590E0,1.383064138E0,5.967773545E-1,1.902831663E0
5.488002625E0,-1.164023931E0,1.796532451E0,9.796243840E-1,2.354175969E0
5.497947625E0,-1.235806689E0,2.152817919E0,1.128333111E0,2.726715749E0
5.507892625E0,-1.377452565E0,2.458229687E0,1.102458524E0,3.025836010E0
5.517838625E0,-1.504436547E0,2.649046553E0,1.238047342E0,3.288394469E0
5.527783625E0,-1.551231814E0,2.875792805E0,1.176524109E0,3.472853780E0
5.537728625E0,-1.555960457E0,3.159066430E0,6.332196144E-1,3.577943646E0
5.547673625E0,-1.532538266E0,3.250228615E0,2.864918592E-1,3.604821378E0
5.557618625E0,-1.442878815E0,3.206585582E0,2.271806638E-1,3.523592119E0
5.567563625E0,-1.414088879E0,3.007572089E0,3.678348881E-1,3.343716455E0
5.577508625E0,-1.790478244E0,2.379543706E0,9.148267096E-1,3.115276633E0
5.587454625E0,-2.900799007E0,1.394185542E0,1.849607627E0,3.712066349E0
5.597399625E0,-2.431703208E0,2.161839588E0,2.033513669E0,3.836913960E0
5.607344625E0,-1.178771194E0,2.790632202E0,1.668962578E0,3.458694219E0
5.617289625E0,-4.948352426E-1,2.966986565E0,1.102107764E0,3.203515681E0
5.627234625E0,-4.865082228E-1,2.791064311E0,7.790227872E-1,2.938299975E0
5.637179625E0,-5.184971702E-1,2.630895626E0,5.086404822E-1,2.729316077E0
5.647124625E0,-9.854780316E-2,2.654531826E0,4.324875150E-1,2.691337276E0
5.657070625E0,5.385800171E-1,2.744262028E0,6.044383764E-1,2.861186513E0
5.667015625E0,1.123294566E0,2.837614580E0,7.313978004E-1,3.138278179E0
5.676960625E0,1.589556804E0,2.876054760E0,7.181117570E-1,3.363638850E0
5.686905625E0,1.874361815E0,2.800981774E0,6.156252694E-1,3.426036425E0
5.696850625E0,1.999776405E0,2.473001508E0,6.730484354E-1,3.250820869E0
5.706795625E0,2.098047050E0,1.923032284E0,7.148115154E-1,2.934418186E0
5.716740625E0,2.121436497E0,1.356966260E0,6.856825143E-1,2.609982903E0
5.726685625E0,1.989637333E0,7.586879253E-1,8.913219991E-1,2.308401826E0
5.736631625E0,1.712171747E0,9.957808256E-2,1.563327949E0,2.320655546E0
5.746576625E0,2.516892462E0,3.448863208E-2,3.017718762E-1,2.535153526E0
5.756521625E0,2.570343030E0,-2.604735768E-1,3.374580181E-1,2.605453452E0
5.766466625E0,2.621091015E0,-7.080223864E-1,2.973706039E-1,2.731271331E0
5.776411625E0,3.157319282E0,-1.019119402E0,-1.090513028E-2,3.317738435E0
5.786356625E0,3.276160432E0,-1.222285588E0,-1.129571698E-1,3.498566643E0
5.796301625E0,3.461271585E0,-1.228593564E0,-1.111807857E-1,3.674534569E0
5.806247042E0,3.905574020E0,-1.154897597E0,-8.317613102E-2,4.073599778E0
5.816192042E0,4.325935616E0,-1.127533212E0,-9.929303080E-4,4.470464303E0
5.826137042E0,4.435609501E0,-1.114845924E0,5.263436951E-2,4.573869637E0
5.836082042E0,4.296475005E0,-1.045806679E0,1.774348553E-1,4.425482144E0
5.846027042E0,4.017227188E0,-9.312059301E-1,4.383458769E-1,4.146975509E0
5.855972042E0,3.646623058E0,-7.165552282E-1,9.038660308E-1,3.824694096E0
5.865917042E0,3.225634641E0,-2.351837844E-1,1.282990796E0,3.479381501E0
5.875863042E0,2.785626985E0,4.194617093E-1,1.426273892E0,3.157518494E0
5.885808042E0,2.451587834E0,1.077230785E0,1.461474130E0,3.050674632E0
5.895753042E0,2.317367338E0,1.635041125E0,1.448260592E0,3.184495188E0
5.905698042E0,2.328474709E0,2.049296474E0,1.401480528E0,3.403756480E0
5.915643042E0,2.473729486E0,2.161164819E0,1.260356224E0,3.518304813E0
5.925588042E0,2.605308795E0,1.980819147E0,1.074154492E0,3.444573454E0
5.935533042E0,2.554500584E0,1.471459420E0,7.882841190E-1,3.051566468E0
5.945478042E0,2.243818721E0,6.185079467E-1,4.241079068E-1,2.365827984E0
5.955424042E0,1.954869788E0,-3.070390481E-1,1.367255898E-1,1.983553063E0
5.965369042E0,1.628867635E0,-1.068551179E0,1.025382355E-2,1.948105884E0
5.975314042E0,1.049345999E0,-1.635006042E0,-7.687758341E-2,1.944294717E0
5.985259042E0,2.930612791E-1,-1.803937365E0,-2.257902324E-2,1.827726659E0
5.995204042E0,-2.969175178E-1,-1.698292211E0,-4.430069849E-3,1.724058025E0
6.005149042E0,-5.599562681E-1,-1.371493083E0,1.053457030E-1,1.485140402E0
6.015094042E0,-4.933050263E-1,-8.826997679E-1,4.846194991E-1,1.121322785E0
6.025040042E0,-2.448235041E-1,-3.050042170E-1,9.104780623E-1,9.909270520E-1
6.034985042E0,-5.099941492E-3,2.109763116E-1,1.347912431E0,1.364333147E0
6.044930042E0,1.359653056E-1,5.711349750E-1,1.673664908E0,1.773650459E0
6.054875042E0,2.615237367E-1,8.711597031E-1,1.963106176E0,2.163584931E0
6.064820042E0,3.259238005E-1,1.140582443E0,2.223172202E0,2.519851042E0
6.074765042E0,2.148880988E-1,1.396434381E0,2.388212203E0,2.774844753E0
6.084710042E0,4.703324854E-2,1.550189255E0,2.400883119E0,2.858240474E0
6.094656042E0,-1.673514050E-1,1.590547907E0,2.294567875E0,2.796943130E0
6.104601042E0,-4.112674212E-1,1.538928103E0,2.107968020E0,2.642152489E0
6.114546042E0,-6.936721498E-1,1.352298428E0,1.808856043E0,2.362594394E0
6.124491042E0,-1.060958569E0,1.034267199E0,1.498004025E0,2.106978354E0
6.134436042E0,-1.514260454E0,6.898761374E-1,1.148095604E0,2.021642234E0
6.144381042E0,-1.878332074E0,3.972253329E-1,7.106298061E-1,2.047172212E0
6.154326042E0,-2.246107321E0,1.130176154E-1,3.825916524E-1,2.281260058E0
6.164271042E0,-2.570486287E0,-2.428541619E-1,2.225373533E-1,2.591505502E0
6.174217042E0,-2.875807423E0,-4.803478888E-1,4.549089924E-2,2.916002718E0
6.184162042E0,-3.217680674E0,-6.241586959E-1,-1.527421367E-1,3.281215195E0
6.194107042E0,-3.529769377E0,-7.445657301E-1,-3.807374272E-1,3.627479975E0
6.204052042E0,-3.754146338E0,-8.201570722E-1,-5.467766440E-1,3.881396275E0
6.213997042E0,-3.917387735E0,-8.342725432E-1,-6.339879385E-1,4.055105183E0
6.223942042E0,-4.047284215E0,-8.161336032E-1,-7.058583319E-1,4.188653669E0
6.233887042E0,-4.101599586E0,-8.062228650E-1,-8.546477509E-1,4.266560353E0
6.243833042E0,-3.986456800E0,-9.275689620E-1,-9.783936913E-1,4.208262850E0
6.253778042E0,-3.858038496E0,-1.108775052E0,-1.073534322E0,4.155276055E0
6.263723042E0,-3.729259418E0,-1.204794519E0,-1.253124534E0,4.114514156E0
6.273668042E0,-3.438476214E0,-1.353140719E0,-1.438809884E0,3.965385525E0
6.283613042E0,-3.140301545E0,-1.504162897E0,-1.601605723E0,3.832641479E0
6.293558042E0,-2.809895269E0,-1.705801790E0,-1.632222914E0,3.670071227E0
6.303503042E0,-2.437925230E0,-2.137892024E0,-1.732337478E0,3.676282752E0
6.313448042E0,-2.087275894E0,-2.777164018E0,-1.761825572E0,3.895303580E0
6.323394042E0,-1.805610838E0,-3.527612924E0,-1.665565784E0,4.298650116E0
6.333339042E0,-1.538072070E0,-4.133089474E0,-1.710448573E0,4.730087590E0
6.343284042E0,-1.334772568E0,-4.604993983E0,-1.832270633E0,5.132718876E0
6.353229042E0,-1.154142721E0,-4.932494777E0,-1.866683251E0,5.398708782E0
6.363174042E0,-1.003948801E0,-5.132346761E0,-1.783911090E0,5.525507692E0
6.373119042E0,-7.993810380E-1,-5.165761260E0,-1.624717866E0,5.473920677E0
6.383064042E0,-5.192859596E-1,-5.075805355E0,-1.509821248E0,5.320997849E0
6.393010042E0,-1.387994510E-1,-5.018759335E0,-1.489086437E0,5.236849145E0
6.402955042E0,2.472489291E-1,-5.188647262E0,-1.508095150E0,5.409024258E0
6.412900042E0,4.435165697E-1,-5.501145855E0,-1.508526090E0,5.721447687E0
6.422845042E0,4.046501273E-1,-5.810117408E0,-1.337755818E0,5.975851123E0
6.432790042E0,1.764748156E-1,-6.059373686E0,-9.667096388E-1,6.138540572E0
6.442735042E0,-2.258229768E-1,-5.936338913E0,-4.165719422E-1,5.955220222E0
6.452680042E0,-6.193745041E-1,-5.213489158E0,2.069556930E-1,5.254229214E0
6.462625042E0,-8.154661435E-1,-4.009331108E0,7.727522331E-1,4.163756354E0
6.472571042E0,-6.006090349E-1,-2.591816930E0,1.305930592E0,2.963730912E0
6.482516042E0,-2.077223361E-1,-1.217236517E0,1.700636945E0,2.101661087E0
6.492461042E0,4.188571072E-1,1.008428353E-1,2.002393034E0,2.048215910E0
6.502406042E0,1.361912420E0,1.235139522E0,2.222835402E0,2.884678891E0
6.512351042E0,2.495798047E0,1.987719446E0,2.532070665E0,4.073256478E0
6.522296042E0,3.557920797E0,2.333091086E0,2.707460237E0,5.043060117E0
6.532241042E0,4.351549344E0,2.265651639E0,2.707855509E0,5.603716668E0
6.542187042E0,4.716481090E0,1.727256394E0,2.528938311E0,5.623534254E0
6.552132042E0,4.229984561E0,9.214644688E-1,2.383979988E0,4.942188456E0
6.562077042E0,3.056758282E0,1.904964387E-1,2.276234515E0,3.815927627E0
6.572022042E0,1.858041067E0,-2.139045972E-1,2.022461847E0,2.754709368E0
6.581967042E0,8.821857977E-1,-5.255857497E-1,1.818593996E0,2.088486601E0
6.591912042E0,1.221161753E-1,-6.978330284E-1,1.453207921E0,1.616693094E0
6.601857042E0,-6.089465797E-1,-6.796440947E-1,1.092613640E0,1.423564751E0
6.611803042E0,-1.124926524E0,-4.849879467E-1,8.998543292E-1,1.520003555E0
6.621748042E0,-1.242599984E0,-8.307899415E-2,6.521113104E-1,1.405775943E0
6.631693042E0,-1.201126269E0,5.649877971E-1,5.088650519E-1,1.421569261E0
6.641638042E0,-1.007461808E0,1.429504479E0,3.960360092E-1,1.793127678E0
6.651583042E0,-6.170999372E-1,2.270222992E0,2.743185775E-1,2.368538674E0
6.661528042E0,-1.163899970E-1,3.008076119E0,2.188822953E-1,3.018274015E0
6.671473042E0,3.553253549E-1,3.567911350E0,2.213340694E-1,3.592385875E0
6.681418042E0,7.902395010E-1,4.068762792E0,3.878849906E-1,4.162903301E0
6.691364042E0,1.237747380E0,4.508724840E0,6.542157233E-1,4.721082129E0
6.701309042E0,1.557238074E0,4.852056386E0,1.018694894E0,5.196650929E0
6.711254042E0,1.713387383E0,5.129513201E0,1.414893456E0,5.590127502E0
6.721199042E0,1.751580811E0,5.248870659E0,1.641499960E0,5.771758888E0
6.731144042E0,1.714511803E0,5.111376892E0,1.667003176E0,5.643104114E0
6.741089042E0,1.544166623E0,4.796302015E0,1.510565014E0,5.260301345E0
6.751034042E0,1.390175521E0,4.378535998E0,1.136429239E0,4.732402866E0
6.760979042E0,1.323031944E0,3.837897177E0,7.616279054E-1,4.130368668E0
6.770925042E0,1.211391640E0,3.192073962E0,4.642689228E-1,3.445627884E0
6.780870042E0,9.462730354E-1,2.542772824E0,2.988155240E-1,2.729545202E0
6.790815042E0,5.384104478E-1,2.079693224E0,2.624845073E-1,2.164233775E0
6.800760167E0,9.194980502E-2,1.670209789E0,3.070945966E-1,1.700694739E0
6.810705167E0,-3.537378359E-1,1.300889708E0,3.906151287E-1,1.403575672E0
6.820650167E0,-6.550553834E-1,9.381623626E-1,3.983802310E-1,1.211591095E0
6.830595167E0,-8.979025286E-1,5.744234490E-1,3.389145595E-1,1.118505399E0
6.840541167E0,-1.066815140E0,2.867708445E-1,2.256593279E-1,1.127499088E0
6.850486167E0,-1.044797450E0,2.828298211E-3,-5.523806155E-2,1.046260462E0
6.860431167E0,-1.064505490E0,-2.494808114E-1,-4.319414216E-1,1.175579009E0
6.870376167E0,-1.210342065E0,-4.413057375E-1,-7.916059953E-1,1.512057777E0
6.880321167E0,-1.367474291E0,-6.215315419E-1,-1.255497042E0,1.957692575E0
6.890266167E0,-1.420201558E0,-7.212768549E-1,-1.711488061E0,2.338034250E0
6.900211167E0,-1.272614327E0,-7.885245126E-1,-2.196762522E0,2.658398712E0
6.910156167E0,-9.360585344E-1,-7.893963325E-1,-2.511792521E0,2.794361075E0
6.920102167E0,-5.322428048E-1,-8.730313969E-1,-2.735430393E0,2.920281777E0
6.930047167E0,-1.061942071E-1,-1.064928828E0,-2.851878278E0,3.046072936E0
6.939992167E0,2.670838541E-1,-1.363895211E0,-2.831237022E0,3.153957356E0
6.949937167E0,6.624614668E-1,-1.668011820E0,-2.658775735E0,3.207835257E0
6.959882167E0,1.147378662E0,-1.947296475E0,-2.389681754E0,3.289227910E0
6.969827167E0,1.746759197E0,-2.167054719E0,-2.121538823E0,3.499745823E0
6.979772167E0,2.325244122E0,-2.364796443E0,-1.907762865E0,3.826039936E0
6.989718167E0,2.717600479E0,-2.574602727E0,-1.692984109E0,4.108543143E0
6.999663167E0,2.854911813E0,-2.710589082E0,-1.445480241E0,4.193712885E0
7.009608167E0,2.784925320E0,-2.671065413E0,-1.051224855E0,3.999434106E0
7.019553167E0,2.517894090E0,-2.417868111E0,-4.661558193E-1,3.521814603E0
7.029498167E0,2.263599266E0,-1.963640612E0,2.667399647E-1,3.008474082E0
7.039443167E0,2.141884795E0,-1.384300824E0,1.048906142E0,2.757564748E0
7.049388167E0,2.215617015E0,-7.341348821E-1,1.594640374E0,2.826798667E0
7.059333167E0,2.411765957E0,-2.719832361E-2,1.985626143E0,3.124110427E0
7.069279167E0,2.793002663E0,7.008759195E-1,2.235210304E0,3.645306027E0
7.079224167E0,3.427126184E0,1.254321313E0,2.357479237E0,4.344677686E0
7.089169167E0,4.169516165E0,1.531739536E0,2.324989768E0,5.013648221E0
7.099114167E0,4.756310568E0,1.579660977E0,2.162034885E0,5.458224424E0
7.109059167E0,4.986918907E0,1.330533337E0,2.072950800E0,5.562086314E0
7.119004167E0,4.750461014E0,7.636551350E-1,2.121093265E0,5.258239786E0
7.128949167E0,4.137054178E0,1.924038005E-1,2.209380375E0,4.693995967E0
7.138894167E0,3.334077103E0,-1.536075246E-1,2.243400645E0,4.021506167E0
7.148840167E0,2.566775644E0,-2.997113174E-1,2.201406527E0,3.394754008E0
7.158785167E0,1.972762268E0,-2.070142382E-1,2.162328415E0,2.934332980E0
7.168730167E0,1.557839168E0,9.835601449E-3,2.131646905E0,2.640242061E0
7.178675167E0,1.383132550E0,3.314757317E-1,2.131039964E0,2.562081798E0
7.188620167E0,1.379716607E0,7.769616437E-1,2.159785461E0,2.678051633E0
7.198565167E0,1.379877405E0,1.229492281E0,2.158168706E0,2.841373802E0
7.208510167E0,1.314711356E0,1.587311473E0,2.083113261E0,2.930423949E0
7.218455167E0,1.126431597E0,1.802080289E0,1.929285881E0,2.870276210E0
7.228401167E0,8.545711523E-1,1.860964674E0,1.718631166E0,2.673419993E0
7.238346167E0,5.384139562E-1,1.864118662E0,1.489660633E0,2.446204566E0
7.248291167E0,2.957720482E-1,1.838183922E0,1.267062396E0,2.252076453E0
7.258236167E0,5.099707603E-2,1.729138028E0,1.036324688E0,2.016553466E0
7.268181167E0,-1.900076115E-1,1.546621869E0,7.407065678E-1,1.725337161E0
7.278126167E0,-4.814714313E-1,1.323704374E0,4.707522424E-1,1.485131537E0
7.288071167E0,-7.867779493E-1,1.114480473E0,1.427363082E-1,1.371663195E0
7.298017167E0,-1.158229340E0,8.894737673E-1,-2.054869455E-1,1.474748681E0
7.307962167E0,-1.542429416E0,6.537801057E-1,-4.644555952E-1,1.738457917E0
7.317907167E0,-1.846092866E0,4.729444367E-1,-5.859215601E-1,1.993750081E0
7.327852167E0,-2.193439111E0,2.636556315E-1,-6.898803766E-1,2.314438238E0
7.337797167E0,-2.496078129E0,1.202941829E-1,-7.580279209E-1,2.611413993E0
7.347742167E0,-2.769174675E0,-2.807218999E-2,-8.613347729E-1,2.900174825E0
7.357687167E0,-2.996191653E0,-1.945625925E-1,-8.703149267E-1,3.126094544E0
7.367632167E0,-3.073981256E0,-4.279416338E-1,-8.372014135E-1,3.214560780E0
7.377578167E0,-3.207580778E0,-6.824452034E-1,-8.137841919E-1,3.378838649E0
7.387523167E0,-3.388187821E0,-8.934519204E-1,-9.190419674E-1,3.622528286E0
7.397468167E0,-3.454314567E0,-1.059372512E0,-1.054410272E0,3.763819904E0
7.407413167E0,-3.381164730E0,-1.277826535E0,-1.195304781E0,3.807081442E0
7.417358167E0,-3.345358136E0,-1.511503492E0,-1.182258912E0,3.856656583E0
7.427303167E0,-3.361016394E0,-1.639907178E0,-1.093070893E0,3.896220057E0
7.437248167E0,-3.243542324E0,-1.800222336E0,-9.532652821E-1,3.830154300E0
7.447193167E0,-2.987582213E0,-2.052730836E0,-8.540653682E-1,3.724080963E0
7.457139167E0,-2.654789103E0,-2.376753122E0,-9.247400790E-1,3.681304769E0
7.467084167E0,-2.306962218E0,-2.846784476E0,-1.062764628E0,3.815196611E0
7.477029167E0,-1.945323624E0,-3.356962812E0,-1.244260447E0,4.074514374E0
7.486974167E0,-1.658140551E0,-3.997001669E0,-1.409068460E0,4.550925878E0
7.496919167E0,-1.459237570E0,-4.595380283E0,-1.516439711E0,5.054352939E0
7.506864167E0,-1.379864541E0,-5.047642826E0,-1.585922029E0,5.467894744E0
7.516809167E0,-1.462892665E0,-5.323697478E0,-1.697587622E0,5.776124438E0
7.526754167E0,-1.532464591E0,-5.447383631E0,-1.775899381E0,5.930957322E0
7.536700167E0,-1.466090507E0,-5.424114636E0,-1.792998394E0,5.897905069E0
7.546645167E0,-1.250880226E0,-5.467805032E0,-1.743942593E0,5.873919388E0
7.556590167E0,-9.508461428E-1,-5.622498969E0,-1.635278522E0,5.932178258E0
7.566535167E0,-6.894165462E-1,-5.753923327E0,-1.395896437E0,5.960826762E0
7.576480167E0,-6.294767386E-1,-5.780517633E0,-9.678644639E-1,5.894691399E0
7.586425167E0,-7.664787555E-1,-5.613109510E0,-4.759382111E-1,5.685156571E0
7.596370167E0,-9.172907263E-1,-5.197821543E0,-1.412848100E-2,5.278159782E0
7.606315167E0,-1.096525428E0,-4.481068679E0,4.017751975E-1,4.630741607E0
7.616261167E0,-1.322761218E0,-3.533337348E0,7.611086726E-1,3.848825336E0
7.626206167E0,-1.322489907E0,-2.516831067E0,1.074080306E0,3.039254296E0
7.636151167E0,-1.027372162E0,-1.451951062E0,1.400657825E0,2.263956225E0
7.646096167E0,-5.280117595E-1,-4.117989331E-1,1.686681980E0,1.814737138E0
7.656041167E0,2.093151176E-1,5.026213950E-1,1.870563464E0,1.948191150E0
7.665986167E0,1.143599022E0,1.145522756E0,1.963416663E0,2.544611189E0
7.675931167E0,2.110495772E0,1.414936725E0,1.928704668E0,3.190006275E0
7.685876167E0,2.798347603E0,1.309749409E0,1.744074740E0,3.547955682E0
7.695822167E0,3.101692965E0,6.824870110E-1,1.358432157E0,3.454218536E0
7.705767167E0,2.714978587E0,-3.939988393E-1,8.183557644E-1,2.862874425E0
7.715712167E0,2.027147221E0,-1.217986715E0,4.097705340E-1,2.400151950E0
7.725657167E0,1.377066649E0,-1.813945459E0,1.737260395E-1,2.284051536E0
7.735602167E0,6.248732257E-1,-2.221710398E0,-1.823535331E-1,2.315106143E0
7.745547167E0,-1.131184798E-1,-2.373394189E0,-5.732586837E-1,2.444262933E0
7.755492167E0,-7.894378477E-1,-2.275163890E0,-9.415742860E-1,2.585758105E0
7.765438167E0,-1.253068255E0,-1.941486096E0,-1.205253818E0,2.606182089E0
7.775383167E0,-1.567092386E0,-1.415974606E0,-1.260073804E0,2.459379723E0
7.785328167E0,-1.653145275E0,-7.391254807E-1,-1.031413246E0,2.083988738E0
7.795273167E0,-1.500775605E0,-1.076355457E-2,-4.323395439E-1,1.561845304E0
7.805218417E0,-1.360766950E0,6.783647239E-1,2.041625512E-1,1.534127680E0
7.815163417E0,-1.299286401E0,1.319666287E0,6.262841588E-1,1.954967035E0
7.825108417E0,-1.284911606E0,1.931390294E0,8.519200248E-1,2.471241395E0
7.835053417E0,-1.360282801E0,2.459721896E0,9.905366041E-1,2.980228828E0
7.844999417E0,-1.411923071E0,2.888920974E0,1.070063269E0,3.388868033E0
7.854944417E0,-1.446119342E0,3.193860871E0,9.314247622E-1,3.627610853E0
7.864889417E0,-1.535013977E0,3.345826498E0,6.689442748E-1,3.741431451E0
7.874834417E0,-1.681723541E0,3.371727909E0,2.890436572E-1,3.778927016E0
7.884779417E0,-1.808916854E0,3.220436466E0,-7.477185488E-2,3.694452875E0
7.894724417E0,-1.819752914E0,3.031417619E0,-2.953650820E-1,3.547990132E0
7.904669417E0,-1.752667224E0,2.970904784E0,-5.143010621E-1,3.487495264E0
7.914614417E0,-1.563626157E0,2.949688162E0,-7.638276279E-1,3.424765636E0
7.924559417E0,-1.266785823E0,2.885222025E0,-9.993341786E-1,3.305740651E0
7.934505417E0,-9.102553564E-1,2.725908203E0,-1.096133737E0,3.075816885E0
7.944450417E0,-4.771392292E-1,2.596912193E0,-1.037220043E0,2.836801051E0
7.954395417E0,7.000812829E-2,2.502864992E0,-8.840836577E-1,2.655341451E0
7.964340417E0,5.338718390E-1,2.401552041E0,-6.934616500E-1,2.556043897E0
7.974285417E0,8.913554013E-1,2.353719478E0,-5.463404417E-1,2.575460679E0
7.984230417E0,1.234101641E0,2.330322429E0,-5.002456713E-1,2.683962596E0
7.994175417E0,1.657434792E0,2.141412340E0,-6.006658991E-1,2.773722484E0
8.004120417E0,2.145501882E0,1.769114857E0,-7.352564511E-1,2.876377540E0
8.014066417E0,2.495969955E0,1.336879905E0,-7.979243504E-1,2.941733701E0
8.024011417E0,2.662422643E0,8.567854929E-1,-6.445952994E-1,2.870205361E0
8.033956417E0,2.527057262E0,4.522961640E-1,-4.884892595E-1,2.613276101E0
8.043901417E0,2.263085296E0,1.728705919E-1,-3.796212669E-1,2.301206554E0
8.053846417E0,2.205738729E0,-7.871404767E-2,-3.891628265E-1,2.241188735E0
8.063791417E0,2.242328850E0,-2.814434463E-1,-4.439457554E-1,2.303114613E0
8.073736417E0,2.429513426E0,-4.725053108E-1,-5.116103196E-1,2.527358675E0
8.083681417E0,2.793838230E0,-6.574223363E-1,-6.166888779E-1,2.935650074E0
8.093627417E0,3.181127974E0,-8.479216987E-1,-6.762970023E-1,3.360940944E0
8.103572417E0,3.494469736E0,-1.001879472E0,-6.143202440E-1,3.686796791E0
8.113517417E0,3.747730188E0,-1.099300516E0,-4.417408434E-1,3.930531536E0
8.123462417E0,3.984433079E0,-1.241345757E0,-2.550731615E-1,4.181113316E0
8.133407417E0,4.210771780E0,-1.337104438E0,-7.215120591E-2,4.418557803E0
8.143352417E0,4.128364046E0,-1.325022336E0,1.648914083E-1,4.338924183E0
8.153297417E0,3.834360781E0,-1.177151515E0,5.755173900E-1,4.052064727E0
8.163242417E0,3.464943636E0,-8.237212425E-1,1.050418963E0,3.713183416E0
8.173188417E0,3.180646749E0,-2.953615737E-1,1.470330323E0,3.516478844E0
8.183133417E0,2.918390356E0,3.741709310E-1,1.760301933E0,3.428654116E0
8.193078417E0,2.748378468E0,1.040057697E0,1.983528162E0,3.545375605E0
8.203023417E0,2.612436551E0,1.736534171E0,2.088807279E0,3.768751983E0
8.212968417E0,2.580793759E0,2.441221890E0,2.038678515E0,4.095884621E0
8.222913417E0,2.687442879E0,2.903889261E0,1.931746974E0,4.403018106E0
8.232858417E0,2.997335953E0,3.158420312E0,1.820725890E0,4.719606388E0
8.242803417E0,3.374254491E0,3.275299721E0,1.685096215E0,4.995270852E0
8.252749417E0,3.793637847E0,3.176512182E0,1.451525677E0,5.156437196E0
8.262694417E0,4.039866437E0,2.770242961E0,1.244060034E0,5.053954122E0
8.272639417E0,4.029481782E0,2.000068765E0,1.082182792E0,4.626890759E0
8.282584417E0,3.775454761E0,1.137032599E0,8.709456220E-1,4.038000502E0
8.292529417E0,3.361950780E0,4.995738262E-1,7.036877724E-1,3.470945625E0
8.302474417E0,2.840016031E0,-8.661246657E-2,6.697213697E-1,2.919198433E0
8.312419417E0,2.291336119E0,-3.907559735E-1,7.277613439E-1,2.435682248E0
8.322364417E0,1.933280699E0,-4.876455063E-1,8.709603862E-1,2.175762945E0
8.332310417E0,1.843542311E0,-4.262906724E-1,1.118931373E0,2.198267365E0
8.342255417E0,1.834264534E0,-1.349034512E-1,1.497464327E0,2.371734541E0
8.352200417E0,1.817391808E0,2.322017044E-1,1.910964800E0,2.647379286E0
8.362145417E0,1.779757374E0,5.381771439E-1,2.246419562E0,2.916088441E0
8.372090417E0,1.694582153E0,8.998683625E-1,2.461400047E0,3.120875187E0
8.382035417E0,1.485468764E0,1.253050713E0,2.583046106E0,3.232472850E0
8.391980417E0,1.281387489E0,1.588903670E0,2.640467518E0,3.337459735E0
8.401925417E0,1.076499884E0,1.758173547E0,2.547131338E0,3.276874162E0
8.411871417E0,8.334042317E-1,1.762064284E0,2.283812506E0,3.002537713E0
8.421816417E0,5.555673480E-1,1.653968562E0,1.878373590E0,2.563699363E0
8.431761417E0,1.415131438E-1,1.377475369E0,1.405315132E0,1.972910282E0
8.441706417E0,-3.351460290E-1,9.940868872E-1,9.980659175E-1,1.447987284E0
8.451651417E0,-7.991816479E-1,6.056768167E-1,5.835211319E-1,1.160186461E0
8.461596417E0,-1.238091781E0,2.636749274E-1,3.099011870E-1,1.303239990E0
8.471541417E0,-1.752421056E0,-7.681311786E-2,6.083852470E-2,1.755158437E0
8.481486417E0,-2.237870933E0,-4.353173116E-1,-1.500220851E-1,2.284748148E0
8.491432417E0,-2.648322667E0,-7.388293192E-1,-2.935700599E-1,2.765079582E0
8.501377417E0,-2.962903454E0,-1.002808594E0,-3.512282109E-1,3.147663135E0
8.511322417E0,-3.194109963E0,-1.212247088E0,-4.168070734E-1,3.441745138E0
8.521267417E0,-3.343649579E0,-1.386990251E0,-5.397668557E-1,3.659929333E0
8.531212417E0,-3.467624000E0,-1.506118791E0,-7.215493351E-1,3.848823646E0
8.541157417E0,-3.666341624E0,-1.569362276E0,-9.109197463E-1,4.090810878E0
8.551102417E0,-3.856877239E0,-1.629285126E0,-1.074595592E0,4.322595024E0
8.561047417E0,-3.939755089E0,-1.659043653E0,-1.203070614E0,4.440886725E0
8.570992417E0,-3.892817150E0,-1.684726963E0,-1.284027653E0,4.431823250E0
8.580938417E0,-3.756880496E0,-1.683560151E0,-1.330381456E0,4.326481325E0
8.590883417E0,-3.643607649E0,-1.762773259E0,-1.337188638E0,4.262783095E0
8.600828417E0,-3.499003667E0,-1.880403450E0,-1.476899231E0,4.237944683E0
8.610773417E0,-3.288648915E0,-1.970165227E0,-1.651671776E0,4.174300224E0
8.620718417E0,-2.896549836E0,-2.125914879E0,-1.735295731E0,3.990083495E0
8.630663417E0,-2.390605468E0,-2.290212868E0,-1.860840567E0,3.797735786E0
8.640608417E0,-1.867016543E0,-2.409651896E0,-1.805721496E0,3.542993530E0
8.650553417E0,-1.401020352E0,-2.722388471E0,-1.581567900E0,3.446101281E0
8.660499417E0,-1.035747714E0,-3.190427679E0,-1.303040314E0,3.598543616E0
8.670444417E0,-7.381057262E-1,-3.665689074E0,-1.035371153E0,3.879957458E0
8.680389417E0,-3.752637756E-1,-4.083728448E0,-8.063368857E-1,4.179454524E0
8.690334417E0,5.394758105E-2,-4.501897923E0,-6.401514155E-1,4.547503610E0
8.700279417E0,2.440300369E-1,-4.874818719E0,-5.614038925E-1,4.913103147E0
8.710224417E0,2.616301560E-1,-4.996896011E0,-6.847557306E-1,5.050377262E0
8.720169417E0,3.152093625E-1,-4.982477362E0,-8.719046384E-1,5.068003088E0
8.730114417E0,3.199649030E-1,-5.004620183E0,-1.193767548E0,5.154966699E0
8.740060417E0,1.382346100E-1,-5.038610047E0,-1.487371448E0,5.255375709E0
8.750005417E0,-2.259720808E-1,-5.048652640E0,-1.530658970E0,5.280423633E0
8.759950417E0,-7.440277863E-1,-5.088744074E0,-1.298198819E0,5.304169471E0
8.769895417E0,-1.252709236E0,-5.126237590E0,-8.878634441E-1,5.351251607E0
8.779840417E0,-1.790697514E0,-4.935343541E0,-4.643181125E-1,5.270655060E0
8.789785417E0,-2.191594314E0,-4.288509343E0,-1.590917013E-1,4.818683242E0
8.799730417E0,-2.395506020E0,-3.332056305E0,4.968130633E-2,4.104085348E0
8.809675167E0,-2.316942245E0,-2.239608725E0,1.395701140E-1,3.225453213E0
8.819620167E0,-1.920590487E0,-1.163311740E0,2.162399020E-1,2.255819522E0
8.829566167E0,-1.333869174E0,-3.787618724E-1,2.203610927E-1,1.404003753E0
8.839511167E0,-6.215011364E-1,6.055873543E-2,1.638067498E-1,6.455723618E-1
8.849456167E0,5.733896613E-2,-8.386953771E-3,1.633623614E-1,1.733359719E-1
8.859401167E0,5.207343149E-1,-5.119608602E-1,2.176900846E-1,7.620086102E-1
8.869346167E0,5.430677551E-1,-1.463730278E0,1.282029806E-1,1.566481701E0
8.879291167E0,4.619586879E-1,-2.532334374E0,-3.983532608E-2,2.574433931E0
8.889236167E0,4.543257326E-1,-3.293636297E0,-2.151471305E-1,3.331777336E0
8.899181167E0,2.810563606E-1,-3.580296045E0,-1.892463040E-1,3.596293454E0
8.909127167E0,1.067625564E-1,-3.508748637E0,-2.376268242E-1,3.518406137E0
8.919072167E0,-1.436263275E-1,-3.242310900E0,-2.590146965E-1,3.255809747E0
8.929017167E0,-1.745247692E-1,-2.746643014E0,-1.841370070E-1,2.758335219E0
8.938962167E0,-1.867015958E-3,-1.975725637E0,-1.002218610E-1,1.978266843E0
8.948907167E0,1.898889130E-1,-1.020002332E0,-4.015867710E-3,1.037534907E0
8.958852167E0,3.272978961E-1,-9.291518033E-2,1.131921182E-1,3.585660318E-1
8.968797167E0,4.030561763E-1,7.336711979E-1,1.619420727E-1,8.526153545E-1
8.978742167E0,2.056214315E-1,1.325640387E0,2.472904809E-1,1.364095008E0
8.988687167E0,5.878439784E-2,1.634679767E0,2.632252765E-1,1.656780340E0
8.998633167E0,-4.298405170E-2,1.971845425E0,5.137725834E-1,2.038132546E0
9.008578167E0,-2.194284618E-2,2.442759708E0,8.805941856E-1,2.596729212E0
9.018523167E0,1.475351912E-1,3.020050047E0,1.191466084E0,3.249932360E0
9.028468167E0,3.880071974E-1,3.568392575E0,1.437134510E0,3.866436442E0
9.038413167E0,7.670827729E-1,4.069054568E0,1.643285115E0,4.454885748E0
9.048358167E0,1.018872065E0,4.474399345E0,1.684482842E0,4.888336346E0
9.058303167E0,1.050607243E0,4.654861962E0,1.552031713E0,5.017999392E0
9.068248167E0,8.482766247E-1,4.584795361E0,1.201886480E0,4.815023660E0
9.078194167E0,3.891813183E-1,4.254090292E0,7.847647530E-1,4.343339963E0
9.088139167E0,-5.748046875E-2,3.692628951E0,3.889210441E-1,3.713498641E0
9.098084167E0,-3.581285101E-1,3.238107921E0,2.589867029E-1,3.268129902E0
9.108029167E0,-4.983213526E-1,2.958794031E0,5.713723719E-2,3.001008323E0
9.117974167E0,-5.569198090E-1,2.811005071E0,-1.239984671E-1,2.868324389E0
9.127919167E0,-4.868438530E-1,2.707898194E0,-3.385930357E-1,2.772070491E0
9.137864167E0,-3.748035997E-1,2.700010884E0,-4.395517190E-1,2.761112498E0
9.147809167E0,-2.615254909E-1,2.699923761E0,-4.690664902E-1,2.752818060E0
9.157754167E0,-8.554885805E-2,2.595777833E0,-5.018700278E-1,2.645232446E0
9.167700167E0,1.296719474E-1,2.318656064E0,-5.104123713E-1,2.377709307E0
9.177645167E0,3.970703816E-1,2.008171252E0,-5.324276499E-1,2.115158592E0
9.187590167E0,5.691451675E-1,1.662174545E0,-5.285174706E-1,1.834688299E0
9.197535167E0,6.936703956E-1,1.180939341E0,-5.221106764E-1,1.465740736E0
9.207480167E0,8.176138258E-1,7.152910602E-1,-4.767087279E-1,1.186332534E0
9.217425167E0,8.521825647E-1,2.877613628E-1,-4.006406915E-1,9.846495261E-1
9.227370167E0,8.423399466E-1,-2.552075744E-2,-3.363716054E-1,9.073774031E-1
9.237315167E0,8.656060177E-1,-3.186726683E-1,-2.816622052E-1,9.644478448E-1
9.247261167E0,9.962585431E-1,-6.359969687E-1,-1.994320075E-1,1.198664405E0
9.257206167E0,1.454722935E0,-9.260019082E-1,-1.034495240E-1,1.727541651E0
9.267151167E0,2.074565216E0,-1.167153361E0,-1.816437542E-2,2.380419658E0
9.277096167E0,2.541025676E0,-1.458447027E0,2.948633909E-2,2.929974173E0
9.287041167E0,2.846930364E0,-1.798325792E0,3.597689465E-2,3.367533591E0
9.296986167E0,3.022964884E0,-1.973462765E0,5.179295518E-2,3.610478429E0
9.306931167E0,3.090907191E0,-1.978421788E0,1.118449563E-1,3.671562247E0
9.316876167E0,3.266409615E0,-2.027496300E0,8.566287875E-2,3.845453308E0
9.326821167E0,3.328801160E0,-2.019771543E0,2.268889242E-1,3.900240099E0
9.336767167E0,2.990203519E0,-1.840338621E0,5.467344709E-1,3.553460554E0
9.346712167E0,2.434482390E0,-1.473389586E0,9.832648605E-1,3.010712734E0
9.356657167E0,2.080211288E0,-9.535826397E-1,1.209804706E0,2.588479530E0
9.366602167E0,1.992622921E0,-2.922695661E-1,1.486040622E0,2.502855236E0
9.376547167E0,1.991910730E0,4.009008926E-1,1.671908405E0,2.631293902E0
9.386492167E0,1.953433127E0,1.067364194E0,1.701287740E0,2.801704353E0
9.396437167E0,1.915736713E0,1.683942559E0,1.684805024E0,3.056841125E0
9.406382167E0,1.893173477E0,2.157795653E0,1.652153441E0,3.312068672E0
9.416327167E0,1.974139287E0,2.394190396E0,1.612900643E0,3.497259222E0
9.426273167E0,2.028552892E0,2.453142024E0,1.656220471E0,3.588314211E0
9.436218167E0,2.036876403E0,2.250049514E0,1.592279999E0,3.427381492E0
9.446163167E0,1.759410818E0,1.697115167E0,1.389844569E0,2.812008933E0
9.456108167E0,1.316908740E0,1.030720278E0,1.075946006E0,1.988540351E0
9.466053167E0,8.532064122E-1,3.028676444E-1,6.178201680E-1,1.096080176E0
9.475998167E0,5.145081997E-1,-2.729392558E-1,3.087691661E-1,6.592062825E-1
9.485943167E0,1.514826465E-1,-7.193431807E-1,1.325293355E-1,7.469709690E-1
9.495888167E0,-1.779453903E-1,-1.124041255E0,-1.027357252E-1,1.142667027E0
9.505834167E0,-5.134802592E-1,-1.260467321E0,-3.343687879E-1,1.401514299E0
9.515779167E0,-7.905073035E-1,-1.213370923E0,-5.160518646E-1,1.537361480E0
9.525724167E0,-6.770403296E-1,-1.298608709E0,-5.674120528E-1,1.570580983E0
9.535669167E0,-6.491877025E-1,-8.658165175E-1,-3.810957885E-1,1.147308553E0
9.545614167E0,-5.194116747E-1,-1.017275190E-1,6.560765997E-2,5.333304239E-1
9.555559167E0,-2.702700019E-1,4.987481993E-1,5.993244747E-1,8.252184355E-1
9.565504167E0,-9.516168058E-2,9.092075354E-1,9.018487414E-1,1.284151564E0
9.575449167E0,-5.993396044E-3,1.263056468E0,1.146940706E0,1.706112700E0
9.585394167E0,6.707399547E-2,1.506780696E0,1.375551635E0,2.041330274E0
9.595340167E0,1.057275993E-1,1.691449800E0,1.640027046E0,2.358361605E0
9.605285167E0,5.571051657E-2,1.786624344E0,1.828633080E0,2.557152547E0
9.615230167E0,-3.970844150E-3,1.777882757E0,1.884286294E0,2.590640404E0
9.625175167E0,-1.269594240E-1,1.668505325E0,1.768170531E0,2.434431298E0
9.635120167E0,-3.805695391E-1,1.490759325E0,1.528033717E0,2.168428827E0
9.645065167E0,-6.856678963E-1,1.268400239E0,1.220163633E0,1.888856512E0
9.655010167E0,-9.782707536E-1,9.964006305E-1,8.708280929E-1,1.645651680E0
9.664955167E0,-1.382743126E0,6.944147462E-1,5.542756250E-1,1.643597232E0
9.674900167E0,-1.765274990E0,4.243739551E-1,2.300598693E-1,1.830086497E0
9.684846167E0,-2.024855112E0,2.072463727E-1,2.744449139E-2,2.035618453E0
9.694791167E0,-2.260264599E0,6.433252841E-2,-4.884062290E-2,2.261707351E0
9.704736167E0,-2.490106367E0,-1.723963827E-2,-8.164715722E-2,2.491504201E0
9.714681167E0,-2.705462828E0,-6.271460384E-2,-2.180432564E-1,2.714959502E0
9.724626167E0,-2.883425760E0,-1.206651887E-1,-4.494054468E-1,2.920730980E0
9.734571167E0,-2.989201307E0,-1.949473393E-1,-5.800936402E-1,3.051202640E0
9.744516167E0,-3.065080624E0,-2.146673664E-1,-7.073955649E-1,3.152968410E0
9.754461167E0,-3.072042904E0,-2.671826720E-1,-7.916825938E-1,3.183645004E0
9.764406167E0,-3.026921110E0,-3.373097911E-1,-8.236806044E-1,3.155071955E0
9.774352167E0,-2.972911549E0,-4.236503622E-1,-9.795023234E-1,3.158655965E0
9.784297167E0,-2.846992344E0,-5.211135069E-1,-1.145798306E0,3.112840898E0
9.794242167E0,-2.615726779E0,-6.998333609E-1,-1.333682209E0,3.018360739E0
9.804187750E0,-2.418078026E0,-8.578473473E-1,-1.499074066E0,2.971569697E0
9.814132750E0,-2.200311343E0,-1.000519994E0,-1.556725712E0,2.875031340E0
9.824077750E0,-1.940479791E0,-1.213188490E0,-1.663446899E0,2.829194888E0
9.834022750E0,-1.483946149E0,-1.629544743E0,-1.815161095E0,2.855227144E0
9.843967750E0,-9.989412457E-1,-2.147264526E0,-1.958154754E0,3.072946240E0
9.853913750E0,-8.080688310E-1,-2.731777930E0,-1.883038937E0,3.414882360E0
9.863858750E0,-7.391330820E-1,-3.276917646E0,-1.829783227E0,3.825259943E0
9.873803750E0,-5.196403009E-1,-3.653613112E0,-1.957509221E0,4.177410342E0
9.883748750E0,-2.177842247E-1,-3.964343800E0,-2.010142202E0,4.450182401E0
9.893693750E0,-9.512835145E-2,-4.212670079E0,-1.793691874E0,4.579625436E0
9.903638750E0,2.229098940E-1,-4.431093989E0,-1.667995448E0,4.739883076E0
9.913583750E0,7.722674990E-1,-4.748951263E0,-1.466560038E0,5.029884048E0
9.923528750E0,1.139458609E0,-5.087345420E0,-1.111835923E0,5.330631151E0
9.933473750E0,1.321148556E0,-5.450369804E0,-6.613656986E-1,5.647067300E0
9.943419750E0,1.570484356E0,-5.836408828E0,-3.004996683E-1,6.051478264E0
9.953364750E0,1.702396957E0,-5.994084261E0,6.194467172E-3,6.231150768E0
9.963309750E0,1.361897217E0,-5.574614950E0,2.727316797E-1,5.745039464E0
9.973254750E0,7.046122903E-1,-4.967052991E0,5.254693902E-1,5.044225607E0
9.983199750E0,8.544828594E-2,-4.081421430E0,1.032293764E0,4.210811408E0
9.993144750E0,-7.256032097E-1,-2.366234858E0,1.408991277E0,2.847950814E0
1.000308975E1,-8.639389765E-1,-6.698991251E-1,1.528314822E0,1.879069341E0
1.001303475E1,-3.475152290E-1,7.785240197E-1,1.411262335E0,1.648795883E0
1.002297975E1,4.257796258E-1,1.873839074E0,1.351068174E0,2.349030944E0
1.003292575E1,1.303903363E0,2.397340876E0,1.427219387E0,3.079669208E0
1.004287075E1,2.267891707E0,2.251838762E0,1.433525609E0,3.502728405E0
1.005281575E1,2.910994797E0,1.501391902E0,1.373659476E0,3.551761353E0
1.006276075E1,2.860881236E0,3.635418624E-1,1.226412553E0,3.133830225E0
1.007270575E1,2.251515995E0,-7.830731535E-1,9.328330640E-1,2.559825261E0
1.008265075E1,1.696337487E0,-1.582990381E0,6.417102101E-1,2.407324534E0
1.009259575E1,9.108593738E-1,-2.113712325E0,5.403061152E-1,2.364185968E0
1.010254075E1,-9.772451520E-3,-2.141884795E0,4.315209337E-1,2.184943087E0
1.011248575E1,-6.419617134E-1,-1.862728779E0,2.382939184E-1,1.984605084E0
1.012243175E1,-1.016782270E0,-1.556507172E0,1.061795159E-1,1.862212354E0
1.013237675E1,-1.118049029E0,-1.072691007E0,1.176664442E-1,1.553880632E0
1.014232175E1,-9.242962754E-1,-3.704795837E-1,4.124163991E-1,1.077806111E0
1.015226675E1,-5.913990855E-1,4.804890990E-1,8.533976892E-1,1.144076164E0
1.016221175E1,-3.550949746E-1,1.191443864E0,1.074848045E0,1.643450408E0
1.017215675E1,-2.435020334E-1,1.684859987E0,1.109523788E0,2.032016106E0
1.018210175E1,-5.100608075E-1,2.161019223E0,1.045380929E0,2.454177540E0
1.019204675E1,-7.690684873E-1,2.461017639E0,9.218666842E-1,2.738231608E0
1.020199175E1,-7.468414664E-1,2.469780276E0,1.084232826E0,2.798776092E0
1.021193775E1,-1.012962284E0,2.460857425E0,1.038034122E0,2.856471021E0
1.022188275E1,-1.519836359E0,2.489600583E0,7.156629431E-1,3.003362627E0
1.023182775E1,-1.885489651E0,2.525325317E0,2.861913123E-1,3.164529135E0
1.024177275E1,-2.005444111E0,2.435964074E0,-7.836555362E-2,3.156242736E0
1.025171775E1,-2.006449832E0,2.225377187E0,-2.467976703E-1,3.006501895E0
1.026166275E1,-1.959438218E0,2.047256380E0,-3.488641816E-1,2.855234322E0
1.027160775E1,-1.814433702E0,1.997156267E0,-7.480943786E-1,2.800080001E0
1.028155275E1,-1.591198702E0,2.154209556E0,-1.125896138E0,2.905197796E0
1.029149775E1,-1.353505878E0,2.325683833E0,-1.445866157E0,3.054719692E0
1.030144375E1,-1.136380634E0,2.420836158E0,-1.414252017E0,3.025213615E0
1.031138875E1,-8.610083520E-1,2.559863650E0,-1.163063087E0,2.940570189E0
1.032133375E1,-3.758865041E-1,2.519952310E0,-1.267445973E0,2.845675597E0
1.033127875E1,-6.463979959E-2,2.630132564E0,-1.739311599E0,3.153883391E0
1.034122375E1,3.846450484E-1,2.731481184E0,-1.912602021E0,3.356633397E0
1.035116875E1,8.874173015E-1,2.640852849E0,-1.773015973E0,3.302302058E0
1.036111375E1,1.142641833E0,2.475651466E0,-1.527031943E0,3.125109133E0
1.037105875E1,1.518229544E0,2.530019462E0,-1.066478341E0,3.137418601E0
1.038100375E1,2.011508258E0,2.356557716E0,-5.968674016E-1,3.155278187E0
1.039094975E1,2.286853058E0,1.982008470E0,-2.433517599E-1,3.035996470E0
1.040089475E1,2.266763195E0,1.546000310E0,-9.229990706E-2,2.745332696E0
1.041083975E1,2.196241096E0,1.321641476E0,2.022610366E-2,2.563322110E0
1.042078475E1,2.267707520E0,9.993148828E-1,-3.068677247E-2,2.478319856E0
1.043072975E1,2.219742810E0,5.928918797E-1,2.923476264E-2,2.297745329E0
1.044067475E1,2.144530660E0,3.398033363E-1,3.101129293E-2,2.171506334E0
1.045061975E1,2.323523287E0,3.408751309E-2,-2.367637020E-1,2.335803817E0
1.046056475E1,2.578978783E0,-2.491118520E-1,-7.369317515E-1,2.693743990E0
1.047050975E1,2.801903295E0,-5.755887991E-1,-9.120429964E-1,3.002296949E0
1.048045475E1,2.920623992E0,-1.039360124E0,-6.651083551E-1,3.170596646E0
1.049040075E1,3.099059964E0,-1.525871855E0,-3.511300508E-1,3.472139094E0
1.050034575E1,3.205393335E0,-1.858820500E0,-1.274242777E-1,3.707559444E0
1.051029075E1,3.233774550E0,-2.142356665E0,3.398869514E-2,3.879193879E0
1.052023575E1,3.158075327E0,-2.288975598E0,1.354519200E-1,3.902716525E0
1.053018075E1,2.911208805E0,-2.244588214E0,2.602741867E-1,3.685248379E0
1.054012575E1,2.622702507E0,-2.033978523E0,4.182238537E-1,3.345227685E0
1.055007075E1,2.438346230E0,-1.525579494E0,6.376275379E-1,2.946098099E0
1.056001575E1,2.145291383E0,-7.578751624E-1,9.459987279E-1,2.464054275E0
1.056996075E1,1.947600530E0,1.802141100E-1,1.365755356E0,2.385563380E0
1.057990675E1,1.981354752E0,9.828140402E-1,1.811510679E0,2.858891573E0
1.058985175E1,1.936955089E0,1.581090621E0,1.958723103E0,3.176198792E0
1.059979675E1,1.840080759E0,2.123850812E0,1.932699339E0,3.410566846E0
1.060974175E1,1.811194929E0,2.575876250E0,1.801072229E0,3.627592411E0
1.061968675E1,1.869748946E0,2.790479005E0,1.649651563E0,3.742203159E0
1.062963175E1,1.928997613E0,2.750962352E0,1.363105252E0,3.625862874E0
1.063957675E1,1.922065154E0,2.488342263E0,1.015760177E0,3.304232197E0
1.064952175E1,1.748048508E0,1.976610906E0,6.537982321E-1,2.718476851E0
1.065946675E1,1.545155388E0,1.280456613E0,4.152773686E-1,2.049275385E0
1.066941275E1,1.403804796E0,5.545382380E-1,2.800874770E-1,1.535131772E0
1.067935775E1,1.158940946E0,-1.084810531E-1,3.853034449E-1,1.226120304E0
1.068930275E1,7.673815656E-1,-6.621217436E-1,5.896877517E-1,1.172608765E0
1.069924775E1,3.899999285E-1,-1.083933449E0,8.387509257E-1,1.424961326E0
1.070919275E1,1.811549270E-1,-1.220513881E0,1.130197788E0,1.673265754E0
1.071913775E1,2.658489221E-1,-1.088370901E0,1.337618993E0,1.744835648E0
1.072908275E1,3.698282039E-1,-7.927549732E-1,1.518635341E0,1.752565732E0
1.073902775E1,5.958827305E-1,-3.481303561E-1,1.803450876E0,1.930985768E0
1.074897275E1,8.934475350E-1,1.425931245E-1,2.048819341E0,2.239696852E0
1.075891775E1,1.138859269E0,6.406174386E-1,2.358990596E0,2.696706838E0
1.076886375E1,1.234715599E0,1.018637592E0,2.499655455E0,2.968235595E0
1.077880875E1,1.282385024E0,1.358299425E0,2.547067603E0,3.158645605E0
1.078875375E1,1.428283580E0,1.736066979E0,2.637421119E0,3.465532094E0
1.079869875E1,1.451321610E0,2.041609139E0,2.572291322E0,3.590429632E0
1.080864350E1,1.299516782E0,2.159389020E0,2.434516304E0,3.504079685E0
1.081858850E1,1.106569775E0,2.101374115E0,2.322171995E0,3.321558763E0
1.082853350E1,8.212063551E-1,1.897636072E0,2.117662119E0,2.959712045E0
1.083847850E1,4.467220134E-1,1.633153644E0,1.831083063E0,2.493915910E0
1.084842350E1,2.984477341E-2,1.361966214E0,1.449259297E0,1.989018649E0
1.085836950E1,-4.397135407E-1,1.116200139E0,9.838739942E-1,1.551534332E0
1.086831450E1,-8.702282417E-1,8.524872047E-1,6.454834914E-1,1.378651720E0
1.087825950E1,-1.255539288E0,5.286263019E-1,4.468857354E-1,1.433712499E0
1.088820450E1,-1.711347290E0,2.088227820E-1,2.618295461E-1,1.743809397E0
1.089814950E1,-2.209968604E0,-9.692286193E-2,-9.992964640E-3,2.212115533E0
1.090809450E1,-2.637525784E0,-3.803403282E-1,-3.304719110E-1,2.685221166E0
1.091803950E1,-3.019357737E0,-6.930944449E-1,-6.377809542E-1,3.162857189E0
1.092798450E1,-3.418433129E0,-9.368841612E-1,-8.842849481E-1,3.653135209E0
1.093792950E1,-3.765287037E0,-1.142126985E0,-1.109629477E0,4.088168062E0
1.094787550E1,-4.028279595E0,-1.361705721E0,-1.245459419E0,4.430851851E0
1.095782050E1,-4.294732534E0,-1.590232742E0,-1.282155375E0,4.755784911E0
1.096776550E1,-4.369172267E0,-1.799867703E0,-1.351736949E0,4.914914326E0
1.097771050E1,-4.298632042E0,-2.054542011E0,-1.362203173E0,4.955297952E0
1.098765550E1,-4.180042908E0,-2.278999078E0,-1.376176702E0,4.955850868E0
1.099760050E1,-3.988851235E0,-2.516142849E0,-1.457384149E0,4.936180464E0
1.100754550E1,-3.604194492E0,-2.836952090E0,-1.515073217E0,4.830523983E0
1.101749050E1,-3.071437132E0,-3.262363634E0,-1.602689212E0,4.758713613E0
1.102743550E1,-2.533589771E0,-3.761484886E0,-1.705608394E0,4.845301401E0
1.103738050E1,-2.120213259E0,-4.237305275E0,-1.702890608E0,5.034868090E0
1.104732650E1,-1.803980634E0,-4.631692370E0,-1.673420641E0,5.244736121E0
1.105727150E1,-1.553886450E0,-4.970707501E0,-1.541835485E0,5.431367491E0
1.106721650E1,-1.309067039E0,-5.247225253E0,-1.473097810E0,5.605091126E0
1.107716150E1,-1.049392776E0,-5.391830989E0,-1.367993670E0,5.660783806E0
1.108710650E1,-6.298556381E-1,-5.393893887E0,-1.349136254E0,5.595621325E0
1.109705150E1,-1.202930135E-1,-5.323350738E0,-1.417691349E0,5.510207097E0
1.110699650E1,2.644876903E-1,-5.357373347E0,-1.432484804E0,5.551883972E0
1.111694150E1,4.287722307E-1,-5.491377497E0,-1.305544676E0,5.660699545E0
1.112688650E1,2.930975318E-1,-5.626664525E0,-1.039607388E0,5.729401658E0
1.113683250E1,-1.920126218E-1,-5.589648142E0,-5.742129493E-1,5.622344325E0
1.114677750E1,-5.352839416E-1,-5.757361490E0,9.669540524E-2,5.783000106E0
1.115672250E1,-9.739227641E-1,-5.388674077E0,9.030977798E-1,5.549947699E0
1.116666750E1,-1.525611069E0,-4.070287746E0,1.454534655E0,4.583710564E0
1.117661250E1,-1.755687311E0,-2.634588727E0,1.900471387E0,3.692598975E0
1.118655750E1,-1.600406313E0,-1.445726409E0,2.158579765E0,3.051375398E0
1.119650250E1,-1.109164769E0,-2.167796731E-1,2.253461949E0,2.520978117E0
1.120644750E1,-2.895085108E-1,7.644105953E-1,2.233600127E0,2.378467629E0
1.121639250E1,7.904868382E-1,1.442316898E0,2.103995422E0,2.670570016E0
1.122633750E1,1.773956936E0,1.951429287E0,1.871059307E0,3.233552598E0
1.123628350E1,2.572526965E0,2.275101324E0,1.610762901E0,3.793222660E0
1.124622850E1,3.233823082E0,2.122902979E0,1.188039688E0,4.046698294E0
1.125617350E1,3.447804278E0,1.427643310E0,6.179694913E-1,3.782513192E0
1.126611850E1,2.878964919E0,3.570578849E-1,-9.548430070E-3,2.901037834E0
1.127606350E1,2.125170529E0,-4.019557303E-1,-4.024096204E-1,2.199966293E0
1.128600850E1,1.510270314E0,-9.360684747E-1,-5.087060807E-1,1.848221439E0
1.129595350E1,9.064207524E-1,-1.405708650E0,-6.413699021E-1,1.791360025E0
1.130589850E1,2.014207917E-1,-1.663472627E0,-8.204076254E-1,1.865684911E0
1.131584350E1,-5.037890840E-1,-1.675776923E0,-7.516526286E-1,1.904471950E0
1.132578850E1,-9.255668753E-1,-1.506681878E0,-4.582018884E-1,1.826667264E0
1.133573450E1,-1.250519453E0,-1.095171213E0,2.165161829E-2,1.662428248E0
1.134567950E1,-1.450680755E0,-5.007192957E-1,6.416290069E-1,1.663394796E0
1.135562450E1,-1.459440469E0,2.051115543E-1,1.206551388E0,1.904679365E0
1.136556950E1,-1.455294208E0,8.357466263E-1,1.641298231E0,2.347384403E0
1.137551450E1,-1.543686567E0,1.383623716E0,1.888500382E0,2.804249721E0
1.138545950E1,-1.431728759E0,1.889756364E0,1.923411768E0,3.052955811E0
1.139540450E1,-1.284135096E0,2.371989103E0,1.864295833E0,3.278861724E0
1.140534950E1,-1.352206627E0,2.793638840E0,1.751789557E0,3.563937062E0
1.141529450E1,-1.398793148E0,3.130767660E0,1.624263538E0,3.794279965E0
1.142524050E1,-1.268268092E0,3.372961671E0,1.347515405E0,3.847229153E0
1.143518550E1,-1.117104118E0,3.657477829E0,1.135785972E0,3.989370309E0
1.144513050E1,-8.761701822E-1,3.884434581E0,8.364582324E-1,4.068927203E0
1.145507550E1,-6.028496879E-1,3.876272453E0,4.010570133E-1,3.943318730E0
1.146502050E1,-3.576461148E-1,3.696347780E0,5.018782139E-2,3.713948906E0
1.147496550E1,-1.771630329E-1,3.507128958E0,-2.819481341E-1,3.522901506E0
1.148491050E1,-1.222798973E-1,3.325447782E0,-5.197233313E-1,3.368036173E0
1.149485550E1,-1.397461152E-1,3.141332409E0,-5.513263625E-1,3.192406465E0
1.150480050E1,-8.756497800E-2,2.915977795E0,-5.573928487E-1,2.970064126E0
1.151474550E1,4.710399985E-2,2.701703653E0,-4.985874009E-1,2.747728301E0
1.152469150E1,2.125410265E-1,2.606100508E0,-3.954564039E-1,2.644488479E0
1.153463650E1,4.242780608E-1,2.574985135E0,-3.186698909E-1,2.629089351E0
1.154458150E1,7.036667955E-1,2.580487365E0,-3.183230048E-1,2.693583400E0
1.155452650E1,9.736806893E-1,2.529430062E0,-4.087883480E-1,2.741017774E0
1.156447150E1,1.165189866E0,2.312596595E0,-5.504219444E-1,2.647401509E0
1.157441650E1,1.222937552E0,1.955315931E0,-6.710369933E-1,2.401900767E0
1.158436150E1,1.218945073E0,1.478307095E0,-7.402727044E-1,2.054074642E0
1.159430650E1,1.092418343E0,9.299943870E-1,-8.153901297E-1,1.650190432E0
1.160425150E1,1.020174240E0,4.762995690E-1,-8.281610334E-1,1.397665001E0
1.161419650E1,1.089327505E0,9.520436525E-3,-8.676601446E-1,1.392680573E0
1.162414250E1,1.275313402E0,-4.812901676E-1,-8.938802290E-1,1.630057165E0
1.163408750E1,1.535954209E0,-8.976522678E-1,-8.294002046E-1,1.962865157E0
1.164403250E1,1.846176481E0,-1.272542991E0,-6.715965718E-1,2.340678367E0
1.165397750E1,2.196498374E0,-1.578024926E0,-4.551648080E-1,2.742616046E0
1.166392250E1,2.601064301E0,-1.767023892E0,-2.558735722E-1,3.154897814E0
1.167386750E1,3.153145539E0,-1.901367180E0,-1.475370915E-1,3.685008974E0
1.168381250E1,3.765280606E0,-2.019236523E0,-1.212507874E-1,4.274266712E0
1.169375750E1,4.222446916E0,-2.132256185E0,-1.961638525E-2,4.730323371E0
1.170370250E1,4.396422631E0,-2.306352938E0,2.462881585E-1,4.970759870E0
1.171364750E1,4.250166226E0,-2.412064750E0,6.860871416E-1,4.934843956E0
1.172359350E1,3.891217352E0,-2.282042554E0,1.290486926E0,4.691976897E0
1.173353850E1,3.411306542E0,-1.894443492E0,1.947541473E0,4.361060222E0
1.174348350E1,2.936299793E0,-1.274298910E0,2.352265860E0,3.972259918E0
1.175342850E1,2.617787923E0,-4.338055140E-1,2.522541457E0,3.661176892E0
1.176337350E1,2.340090787E0,3.451833594E-1,2.699322667E0,3.589083352E0
1.177331850E1,2.155995296E0,1.115047068E0,2.908264732E0,3.788093113E0
1.178326350E1,2.268220321E0,1.826202393E0,3.039479175E0,4.209307812E0
1.179320850E1,2.716493016E0,2.185748852E0,2.908233157E0,4.540336160E0
1.180315600E1,3.164645258E0,2.269783866E0,2.666376531E0,4.719794721E0
1.181310100E1,3.314321115E0,2.114328037E0,2.366541837E0,4.588641168E0
1.182304700E1,3.141977357E0,1.579071577E0,1.945651653E0,4.018836786E0
1.183299200E1,2.638855441E0,6.902281398E-1,1.421543494E0,3.075834656E0
1.184293700E1,2.230649621E0,-2.476295829E-2,1.099966514E0,2.487234864E0
1.185288200E1,1.809073559E0,-4.093787706E-1,8.717157733E-1,2.049445415E0
1.186282700E1,1.337271084E0,-6.506559384E-1,6.681823826E-1,1.630372595E0
1.187277200E1,9.099711818E-1,-7.277941614E-1,4.536387578E-1,1.250407940E0
1.188271700E1,5.590996510E-1,-6.339872807E-1,2.602111099E-1,8.844445226E-1
1.189266200E1,3.766524893E-1,-3.239129430E-1,2.512789033E-1,5.567115766E-1
1.190260700E1,5.312733364E-1,1.958887410E-1,4.723105985E-1,7.373608739E-1
1.191255200E1,8.472217870E-1,8.109947777E-1,9.663260615E-1,1.519632634E0
1.192249800E1,9.852225083E-1,1.323508492E0,1.383574600E0,2.153280472E0
1.193244300E1,1.034522722E0,1.661357104E0,1.675402701E0,2.576299459E0
1.194238800E1,1.086726664E0,1.877424586E0,1.810040689E0,2.825233656E0
1.195233300E1,1.104515063E0,2.062163272E0,1.869368293E0,2.994496401E0
1.196227800E1,1.031305584E0,2.128791710E0,1.866634719E0,3.013249164E0
1.197222300E1,8.762204683E-1,2.034425250E0,1.783865043E0,2.844085600E0
1.198216800E1,5.745643669E-1,1.860590453E0,1.595856594E0,2.517673393E0
1.199211300E1,1.608662581E-1,1.590268995E0,1.328773325E0,2.078574507E0
1.200205800E1,-3.126769334E-1,1.261201732E0,1.079449804E0,1.689262724E0
1.201200300E1,-7.785965252E-1,9.400486743E-1,9.785245228E-1,1.564421395E0
1.202194900E1,-1.237423444E0,5.686200875E-1,8.681160812E-1,1.614983317E0
1.203189400E1,-1.737087318E0,2.281057298E-1,7.274438401E-1,1.897018480E0
1.204183900E1,-2.241438319E0,-1.095598644E-1,5.038451441E-1,2.299980224E0
1.205178400E1,-2.701818259E0,-4.365425956E-1,3.217488885E-1,2.755705661E0
1.206172900E1,-3.180209377E0,-6.138336825E-1,1.529748559E-1,3.242518277E0
1.207167400E1,-3.480661536E0,-6.550501209E-1,-5.163325310E-2,3.542140791E0
1.208161900E1,-3.803699151E0,-6.394041413E-1,-2.734367077E-1,3.866747021E0
1.209156400E1,-4.021226099E0,-6.361115742E-1,-5.058934969E-1,4.102538909E0
1.210150900E1,-4.073146450E0,-6.154782119E-1,-7.391447765E-1,4.185172688E0
1.211145400E1,-4.042873660E0,-5.664577872E-1,-8.628566569E-1,4.172555987E0
1.212140000E1,-3.964217500E0,-6.090187928E-1,-1.011209435E0,4.136238484E0
1.213134500E1,-3.849171778E0,-7.772180441E-1,-1.123372334E0,4.084379594E0
1.214129000E1,-3.771975083E0,-8.938632721E-1,-1.254084062E0,4.074250165E0
1.215123500E1,-3.727874213E0,-1.031541812E0,-1.377669497E0,4.105983183E0
1.216118000E1,-3.635957737E0,-1.275790827E0,-1.551033740E0,4.153737662E0
1.217112500E1,-3.453915787E0,-1.670899468E0,-1.780182613E0,4.229715053E0
1.218107000E1,-3.264103473E0,-2.145424992E0,-2.134546685E0,4.451236842E0
1.219101500E1,-3.054814668E0,-2.680954224E0,-2.442484889E0,4.741849917E0
1.220096000E1,-2.819143810E0,-3.267340784E0,-2.594535885E0,5.035345478E0
1.221090500E1,-2.566272199E0,-3.834128354E0,-2.724527383E0,5.358109992E0
1.222085100E1,-2.303531656E0,-4.279582983E0,-2.757139058E0,5.587745913E0
1.223079600E1,-1.971677025E0,-4.807390383E0,-2.706358037E0,5.858573752E0
1.224074100E1,-1.669050286E0,-5.121718862E0,-2.331511753E0,5.869725719E0
1.225068600E1,-1.151112109E0,-5.153225414E0,-1.889779315E0,5.608213362E0
1.226063100E1,-3.923774064E-1,-5.140317686E0,-1.625142228E0,5.405359673E0
1.227057600E1,2.743232918E-1,-5.221930783E0,-1.413287080E0,5.416751309E0
1.228052100E1,4.816801769E-1,-4.983134589E0,-1.075238639E0,5.120525779E0
1.229046600E1,7.940203106E-1,-5.067529206E0,-7.810219502E-1,5.188479141E0
1.230041100E1,1.096226050E0,-5.375942350E0,-2.624991985E-1,5.492847489E0
1.231035600E1,1.004591410E0,-5.217621385E0,2.796927899E-1,5.320808667E0
1.232030200E1,5.835562152E-1,-4.792501325E0,8.492764986E-1,4.902027884E0
1.233024700E1,1.676338255E-2,-3.958360929E0,1.276637211E0,4.159171170E0
1.234019200E1,-2.688041049E-1,-2.935433235E0,1.706205833E0,3.405901095E0
1.235013700E1,-1.239048386E-1,-1.856516697E0,2.084033613E0,2.793779296E0
1.236008200E1,1.182277769E-1,-6.236371243E-1,2.291581117E0,2.377865658E0
1.237002700E1,4.761376011E-1,5.276088864E-1,2.517208212E0,2.615609936E0
1.237997200E1,1.007419708E0,1.444372779E0,2.603171638E0,3.142866489E0
1.238991700E1,1.567915090E0,1.895268534E0,2.559546731E0,3.549884507E0
1.239986200E1,2.385340635E0,1.734950160E0,2.507969611E0,3.871668061E0
1.240980700E1,2.980885397E0,1.160974608E0,2.289977810E0,3.934150246E0
1.241975200E1,3.243268674E0,2.480271935E-2,1.771562501E0,3.695651575E0
1.242969800E1,3.421436259E0,-1.262785742E0,1.509008485E0,3.946892513E0
1.243964300E1,2.750535505E0,-1.775055628E0,1.270099440E0,3.511327475E0
1.244958800E1,2.428062732E0,-2.215898266E0,1.049903238E0,3.450795642E0
1.245953300E1,2.276973018E0,-2.257195396E0,9.381091529E-1,3.340596648E0
1.246947800E1,2.153303822E0,-2.010619481E0,6.358162898E-1,3.013896216E0
1.247942300E1,1.732945150E0,-1.498074777E0,4.171391587E-1,2.328375401E0
1.248936800E1,8.845205909E-1,-8.061094290E-1,3.187726192E-1,1.238468841E0
1.249931300E1,3.920815372E-1,-1.750673908E-1,4.090308247E-1,5.930284468E-1
1.250925800E1,1.706661916E-1,3.582039392E-1,6.931084782E-1,7.986465886E-1
1.251920300E1,-9.246728361E-2,8.639606112E-1,1.136898113E0,1.430914203E0
1.252914800E1,-4.209293604E-1,1.400702264E0,1.336469430E0,1.981236709E0
1.253909400E1,-9.344312543E-1,1.804815617E0,1.320470864E0,2.423667568E0
1.254903900E1,-1.436266199E0,2.047645220E0,1.252574750E0,2.797258487E0
1.255898400E1,-1.791869296E0,2.258011667E0,1.135602297E0,3.098226080E0
1.256892900E1,-2.088541816E0,2.461117042E0,1.036660976E0,3.390246302E0
1.257887400E1,-2.217135537E0,2.657688153E0,9.334307226E-1,3.584730006E0
1.258881900E1,-2.303249236E0,2.796112213E0,8.252700969E-1,3.715409975E0
1.259876400E1,-2.435348362E0,2.898961812E0,6.779880901E-1,3.846370898E0
1.260870900E1,-2.513604573E0,2.990311693E0,4.180940455E-1,3.928737024E0
1.261865400E1,-2.549838599E0,2.953404068E0,9.041549563E-2,3.902876815E0
1.262859900E1,-2.461290119E0,2.944832634E0,-2.975198541E-1,3.849481310E0
1.263854500E1,-2.275714697E0,2.949081221E0,-8.367780751E-1,3.817873096E0
1.264849000E1,-2.124667084E0,2.930806918E0,-1.222632328E0,3.820820490E0
1.265843500E1,-2.073112183E0,2.915640410E0,-1.444665139E0,3.858213381E0
1.266838000E1,-1.875633000E0,3.107607424E0,-1.216967107E0,3.828345855E0
1.267832500E1,-1.252832612E0,2.972637314E0,-1.020170732E0,3.383328313E0
1.268827000E1,-1.313422630E0,2.390476245E0,-1.378261819E0,3.055987782E0
1.269821500E1,-1.506841507E0,2.151509897E0,-1.467853442E0,3.009013109E0
1.270816000E1,-1.147657574E0,1.977780933E0,-1.765312412E0,2.888782311E0
1.271810500E1,-4.874531329E-1,1.800009790E0,-1.630147444E0,2.476898563E0
1.272805000E1,2.771673775E-1,1.787529493E0,-1.394951527E0,2.284288337E0
1.273799600E1,8.556499636E-1,1.855847776E0,-1.217009060E0,2.378532926E0
1.274794100E1,1.154954315E0,1.723303092E0,-1.041923397E0,2.321486028E0
1.275788600E1,1.332375795E0,1.236603665E0,-9.460625356E-1,2.049255524E0
1.276783100E1,1.420733655E0,7.043982822E-1,-8.417360023E-1,1.795321853E0
1.277777600E1,1.572389964E0,2.407076490E-1,-8.684900106E-1,1.812353517E0
1.278772100E1,1.797145824E0,-3.025378615E-1,-1.032200939E0,2.094445284E0
1.279766600E1,1.965235147E0,-9.153529590E-1,-1.068220665E0,2.416840006E0
1.280760892E1,2.236750606E0,-1.513348289E0,-9.762554377E-1,2.871646043E0
1.281755392E1,2.530439292E0,-1.932593066E0,-8.262245087E-1,3.289481100E0
1.282749892E1,2.963030339E0,-2.044483046E0,-6.506300645E-1,3.658248105E0
1.283744392E1,3.431506918E0,-1.985819101E0,-4.165953311E-1,3.986510868E0
1.284738992E1,3.853349029E0,-1.906923205E0,7.308773252E-1,4.361059104E0
1.285733492E1,4.176629303E0,-2.026275986E0,5.690649875E-1,4.676950039E0
1.286727992E1,4.750624736E0,-2.111743568E0,8.009819325E-1,5.260177595E0
1.287722492E1,4.645940280E0,-1.840797628E0,1.157093226E0,5.129538159E0
1.288716992E1,4.414276519E0,-1.565445811E0,1.554487544E0,4.934864669E0
1.289711492E1,3.974797452E0,-1.103218735E0,1.940855767E0,4.558840584E0
1.290705992E1,3.413976966E0,-5.851583523E-1,2.295707497E0,4.155468918E0
1.291700492E1,2.970232354E0,-7.177691102E-2,2.436259943E0,3.842238238E0
1.292694992E1,2.726106423E0,4.759446430E-1,2.381866804E0,3.651228424E0
1.293689492E1,2.534713022E0,9.476874769E-1,2.197064969E0,3.485681588E0
1.294683992E1,2.430130892E0,1.371897710E0,1.960731037E0,3.410587292E0
1.295678592E1,2.470073807E0,1.659364958E0,1.546002064E0,3.353338494E0
1.296673092E1,2.660272037E0,1.744018607E0,1.071899952E0,3.356727234E0
1.297667592E1,2.852080007E0,1.652534240E0,6.369542310E-1,3.357222136E0
1.298662092E1,2.965550489E0,1.322920262E0,2.651448443E-1,3.258053024E0
1.299656592E1,3.074250813E0,8.548477256E-1,-1.119032823E-2,3.190910202E0
1.300651092E1,3.002635869E0,4.258047688E-1,-1.922693145E-1,3.038766091E0
1.301645592E1,2.707077829E0,1.673256773E-1,-3.237411810E-1,2.731497137E0
1.302640092E1,2.380865176E0,9.392967224E-3,-4.213036553E-1,2.417871788E0
1.303634592E1,2.059643707E0,-1.497799373E-1,-3.933669014E-1,2.102214011E0
1.304629092E1,1.830339298E0,-9.676849544E-2,-2.532301191E-1,1.850305807E0
1.305623692E1,1.566842126E0,3.053766847E-2,-9.739122391E-3,1.567169948E0
1.306618192E1,1.345684057E0,2.636041760E-1,3.655907267E-1,1.419157963E0
1.307612692E1,1.238769473E0,5.965493131E-1,7.512017351E-1,1.566756183E0
1.308607192E1,1.159173666E0,9.658413273E-1,1.124121362E0,1.881537109E0
1.309601692E1,1.147554079E0,1.468480849E0,1.476015571E0,2.377380561E0
1.310596192E1,1.309365832E0,1.836482967E0,1.817395901E0,2.896555960E0
1.311590692E1,1.379570426E0,2.064122674E0,2.017215725E0,3.198902352E0
1.312585192E1,1.386287123E0,2.354064463E0,2.128886434E0,3.463461987E0
1.313579692E1,1.337811366E0,2.530075595E0,2.181452903E0,3.598577293E0
1.314574192E1,1.145846107E0,2.425756005E0,2.211555539E0,3.476813685E0
1.315568692E1,8.484888786E-1,2.159308328E0,2.166560630E0,3.174355178E0
1.316563292E1,3.930159223E-1,1.757907498E0,2.117315964E0,2.779878987E0
1.317557792E1,-2.883069080E-1,1.251500616E0,1.961579468E0,2.344604162E0
1.318552292E1,-1.048004647E0,7.404504597E-1,1.715254984E0,2.142120511E0
1.319546792E1,-1.591802135E0,4.635701805E-1,1.567343817E0,2.281512216E0
1.320541292E1,-2.062904114E0,2.402030343E-1,1.171020636E0,2.384231577E0
1.321535792E1,-2.545407579E0,1.692008793E-2,7.581481542E-1,2.655969626E0
1.322530292E1,-2.898788150E0,-1.961150283E-1,5.336595120E-1,2.954018672E0
1.323524792E1,-3.233719001E0,-4.042595333E-1,3.686839038E-1,3.279678669E0
1.324519292E1,-3.554809493E0,-6.719895047E-1,2.230695230E-1,3.624637974E0
1.325513792E1,-3.786718252E0,-9.192349255E-1,1.219331574E-1,3.898601758E0
1.326508292E1,-3.864792615E0,-1.018151688E0,2.856364846E-3,3.996656474E0
1.327502892E1,-3.832132992E0,-1.077673420E0,-2.829350710E-1,3.990823915E0
1.328497392E1,-3.766761121E0,-1.192157224E0,-5.843198615E-1,3.993890070E0
1.329491892E1,-3.729344203E0,-1.367526624E0,-8.313454270E-1,4.058235142E0
1.330486392E1,-3.771592090E0,-1.492360293E0,-1.016492248E0,4.181543092E0
1.331480892E1,-3.914345428E0,-1.695113373E0,-1.122384739E0,4.410811374E0
1.332475392E1,-3.940531014E0,-1.933759293E0,-1.212655370E0,4.553871180E0
1.333469892E1,-3.779910924E0,-2.217994200E0,-1.182862052E0,4.539425900E0
1.334464392E1,-3.406387864E0,-2.609189884E0,-1.188544376E0,4.452413713E0
1.335458892E1,-2.968667055E0,-3.010159189E0,-1.140095517E0,4.378796663E0
1.336453392E1,-2.477479305E0,-3.373116038E0,-1.080241078E0,4.322353098E0
1.337447892E1,-1.976450692E0,-3.689336384E0,-1.067198279E0,4.319313887E0
1.338442492E1,-1.622424003E0,-3.985002013E0,-1.037070500E0,4.425835053E0
1.339436992E1,-1.309095690E0,-4.274401473E0,-1.014458148E0,4.584033684E0
1.340431492E1,-9.762949795E-1,-4.517503265E0,-9.790525264E-1,4.724355139E0
1.341425992E1,-5.934473652E-1,-4.717551715E0,-9.148933679E-1,4.841952481E0
1.342420492E1,-3.452213663E-1,-4.717442664E0,-8.351391736E-1,4.803217726E0
1.343414992E1,-1.819782150E-1,-4.616564161E0,-7.599567711E-1,4.682233977E0
1.344409492E1,-1.125659180E-1,-4.712935630E0,-7.608275677E-1,4.775279252E0
1.345403992E1,-2.091309303E-1,-4.988161440E0,-7.088627044E-1,5.042616050E0
1.346398492E1,-3.832662749E-1,-5.244965304E0,-4.438622133E-1,5.277647937E0
1.347392992E1,-5.988683188E-1,-5.416842454E0,-2.571261920E-2,5.449907024E0
1.348387492E1,-8.888434374E-1,-5.405573700E0,4.419810178E-1,5.495963692E0
1.349382092E1,-1.227511829E0,-4.967281618E0,9.354579522E-1,5.201514543E0
1.350376592E1,-1.544055526E0,-4.135159096E0,1.327765265E0,4.609404388E0
1.351371092E1,-1.678960732E0,-3.198421115E0,1.646865365E0,3.970009105E0
1.352365592E1,-1.507113987E0,-1.973946914E0,1.821211209E0,3.079719023E0
1.353360092E1,-1.285986325E0,-8.839376235E-1,1.893072905E0,2.453330710E0
1.354354592E1,-6.879477257E-1,2.364672482E-2,1.879651791E0,2.001729776E0
1.355349092E1,2.171959949E-1,5.870791626E-1,1.893414967E0,1.994205677E0
1.356343592E1,1.174751233E0,7.955446798E-1,1.769914756E0,2.268376080E0
1.357338092E1,2.028476293E0,7.334408176E-1,1.429523190E0,2.587699375E0
1.358332592E1,2.569187620E0,2.787584049E-1,9.363262638E-1,2.748661156E0
1.359327092E1,2.651712298E0,-3.467989451E-1,2.482856405E-1,2.685794739E0
1.360321692E1,2.365212180E0,-9.719347107E-1,-4.642566437E-1,2.598926696E0
1.361316192E1,2.039266745E0,-1.498035015E0,-7.087930495E-1,2.627756715E0
1.362310692E1,1.772729021E0,-1.820105501E0,-1.077615532E0,2.759820184E0
1.363305192E1,1.223388373E0,-1.963309075E0,-1.225403981E0,2.617799945E0
1.364299692E1,6.269630206E-1,-1.880296154E0,-1.364952387E0,2.406593292E0
1.365294192E1,1.417844546E-1,-1.517796265E0,-1.324032403E0,2.019126083E0
1.366288692E1,-2.568032795E-1,-8.988369137E-1,-1.001552101E0,1.370022749E0
1.367283192E1,-4.809674013E-1,-1.064889067E-1,-5.926399378E-1,7.706436428E-1
1.368277692E1,-5.883661348E-1,7.482892370E-1,-6.894568920E-2,9.543924763E-1
1.369272192E1,-6.603009206E-1,1.511349126E0,5.070927608E-1,1.725490236E0
1.370266692E1,-6.904585201E-1,2.110202826E0,9.510671675E-1,2.415412531E0
1.371261192E1,-8.004580951E-1,2.482206779E0,1.228354998E0,2.882870038E0
1.372255792E1,-8.966699356E-1,2.720504206E0,1.405312793E0,3.190621280E0
1.373250292E1,-1.006842003E0,2.878320556E0,1.493144404E0,3.395282058E0
1.374244792E1,-1.235887381E0,2.909477445E0,1.468650418E0,3.485600475E0
1.375239292E1,-1.526026806E0,2.938835145E0,1.450466893E0,3.615157539E0
1.376233792E1,-1.706044450E0,2.983170488E0,1.338262771E0,3.687931815E0
1.377228292E1,-1.831893488E0,3.008047467E0,1.110872741E0,3.692996285E0
1.378222792E1,-1.966693443E0,3.055809279E0,7.933232494E-1,3.719571915E0
1.379217292E1,-1.926109673E0,3.020810770E0,4.185887200E-1,3.606994968E0
1.380211792E1,-1.835829833E0,2.940407462E0,7.177939609E-2,3.467191875E0
1.381206263E1,-1.722371630E0,2.818078448E0,-2.917205125E-1,3.315604172E0
1.382200862E1,-1.630446383E0,2.673111938E0,-6.084343636E-1,3.189682620E0
1.383195363E1,-1.405560715E0,2.519695033E0,-8.540729696E-1,3.008970691E0
1.384189863E1,-1.062898675E0,2.373456754E0,-9.912218978E-1,2.783086669E0
1.385184363E1,-5.103672016E-1,2.302333562E0,-1.110089360E0,2.606436820E0
1.386178863E1,9.164048731E-2,2.290400564E0,-1.223120570E0,2.598144848E0
1.387173363E1,5.631541103E-1,2.297323667E0,-1.360252980E0,2.728575957E0
1.388167863E1,9.659132481E-1,2.197431005E0,-1.643888109E0,2.909305680E0
1.389162363E1,1.379216085E0,2.004318522E0,-1.894927788E0,3.083874360E0
1.390156863E1,1.680476330E0,1.788739867E0,-1.925116085E0,3.119240765E0
1.391151363E1,2.112166906E0,1.432110583E0,-1.893415406E0,3.177610998E0
1.392145863E1,2.479538695E0,1.130989501E0,-1.822439125E0,3.278495654E0
1.393140463E1,2.571502533E0,7.203605962E-1,-1.814158298E0,3.228422989E0
1.394134963E1,2.862033722E0,3.445120990E-1,-1.963968056E0,3.488136485E0
1.395129463E1,3.540937559E0,4.480838299E-2,-1.806040170E0,3.975176434E0
1.396123963E1,4.191095899E0,-3.354717189E-1,-1.483114821E0,4.458414033E0
1.397118462E1,4.409090039E0,-6.704358995E-1,-1.458436940E0,4.692184734E0
1.398112962E1,4.588516529E0,-1.115166351E0,-1.549416838E0,4.969785958E0
1.399107462E1,4.692333258E0,-1.460093018E0,-1.390722821E0,5.107247105E0
1.400101962E1,4.722938170E0,-1.697191181E0,-1.086468655E0,5.134882374E0
1.401096463E1,4.941078490E0,-2.064099285E0,-1.004115593E0,5.448211691E0
1.402090963E1,4.981200330E0,-2.403594473E0,-9.215318580E-1,5.607035231E0
1.403085463E1,4.781372904E0,-2.567873751E0,-5.677905138E-1,5.456911995E0
1.404080063E1,4.243208039E0,-2.453044960E0,-1.614664748E-2,4.901275830E0
1.405074563E1,3.646628906E0,-2.088953460E0,5.057056551E-1,4.232891109E0
1.406069063E1,2.971348588E0,-1.532794374E0,7.201652261E-1,3.420089030E0
1.407063563E1,2.412074690E0,-7.111810523E-1,7.753697392E-1,2.631554870E0
1.408058063E1,2.177529421E0,2.136186683E-1,9.119921257E-1,2.370442354E0
1.409052563E1,2.282751237E0,1.001014084E0,1.089264282E0,2.720198353E0
1.410047063E1,2.247959134E0,1.518002672E0,1.243485838E0,2.983941925E0
1.411041563E1,2.293940468E0,1.774647492E0,1.154970102E0,3.121777143E0
1.412036063E1,2.812990201E0,2.577457337E0,8.913746971E-1,3.918003196E0
1.413030563E1,2.789982576E0,2.359228140E0,1.082007303E0,3.810603626E0
1.414025063E1,2.609581940E0,2.144073408E0,6.733975142E-1,3.443897921E0
1.415019663E1,2.956259848E0,2.152183496E0,1.769811845E-1,3.660968236E0
1.416014163E1,2.863092068E0,1.658515357E0,8.090901934E-2,3.309760663E0
1.417008663E1,2.528057136E0,9.049759054E-1,-7.734813809E-2,2.686268231E0
1.418003163E1,2.164801202E0,3.621619195E-1,-2.111313359E-1,2.205017447E0
1.418997662E1,1.996953369E0,-4.128485084E-2,-1.176548228E-1,2.000842286E0
1.419992162E1,1.866107301E0,-2.629469490E-1,9.566965744E-2,1.886968531E0
1.420986662E1,1.805400923E0,-2.775100243E-1,4.074024117E-1,1.871486316E0
1.421981162E1,1.779653878E0,-1.890159237E-1,6.558728242E-1,1.906059838E0
1.422975663E1,1.882133349E0,7.429823041E-2,9.966941607E-1,2.131043271E0
1.423970163E1,1.988077880E0,4.405824369E-1,1.445833998E0,2.497399145E0
1.424964663E1,1.965819869E0,8.192247337E-1,2.003833203E0,2.924196373E0
1.425959263E1,2.064240203E0,1.170106205E0,2.759035603E0,3.639026464E0
1.426953763E1,2.283620718E0,1.534904634E0,3.032392935E0,4.094662712E0
1.427948263E1,1.865565264E0,1.996305497E0,2.744860198E0,3.872960999E0
1.428942763E1,1.631145126E0,2.109418130E0,2.844760462E0,3.899094940E0
1.429937263E1,1.473369121E0,2.046950571E0,3.029238362E0,3.941713873E0
1.430931763E1,9.532423317E-1,1.912183945E0,2.818349758E0,3.536695314E0
1.431926263E1,3.055515164E-1,1.712600348E0,2.446613023E0,3.002045464E0
1.432920763E1,-2.358597225E-1,1.472771536E0,2.153411411E0,2.619516465E0
1.433915263E1,-8.168174350E-1,1.232005414E0,1.936491405E0,2.436191089E0
1.434909763E1,-1.515824584E0,8.756866175E-1,1.762831439E0,2.484376361E0
1.435904263E1,-2.141790655E0,5.726453108E-1,1.531319121E0,2.694462490E0
1.436898863E1,-2.734026477E0,3.268318731E-1,1.306086128E0,3.047553252E0
1.437893363E1,-3.162718601E0,1.351121968E-1,1.078610801E0,3.344315403E0
1.438887863E1,-3.563495532E0,-3.228306234E-2,8.186745838E-1,3.656469702E0
1.439882363E1,-3.922453178E0,-2.416455424E-1,5.852239142E-1,3.973225205E0
1.440876862E1,-4.207922432E0,-4.051962572E-1,4.245826642E-1,4.248654568E0
1.441871362E1,-4.370934033E0,-5.442898232E-1,2.185051864E-1,4.410108871E0
1.442865862E1,-4.483547314E0,-7.065635061E-1,3.413889550E-2,4.539008038E0
1.443860363E1,-4.486919403E0,-8.673771393E-1,-5.674094215E-2,4.570340071E0
1.444854863E1,-4.449979618E0,-9.921812797E-1,-5.085973956E-2,4.559531665E0
1.445849363E1,-4.323350562E0,-1.163760806E0,-5.820676602E-2,4.477620721E0
1.446843863E1,-4.087996039E0,-1.339377835E0,-3.453431346E-2,4.301957371E0
1.447838463E1,-3.834931469E0,-1.575015948E0,-8.298953176E-3,4.145774172E0
1.448832963E1,-3.566634902E0,-1.950020692E0,1.177898204E-1,4.066612800E0
1.449827463E1,-3.336202565E0,-2.409296678E0,1.221787405E-1,4.117023887E0
1.450821963E1,-3.171088890E0,-2.898515085E0,1.442975879E-2,4.296207940E0
1.451816463E1,-3.012769679E0,-3.356044507E0,-6.158521414E-2,4.510388964E0
1.452810963E1,-2.838551304E0,-3.789376689E0,-8.004834574E-2,4.735309592E0
1.453805463E1,-2.640449392E0,-4.197146890E0,-1.783231205E-1,4.961835764E0
1.454799963E1,-2.362182153E0,-4.624878024E0,-3.427596885E-1,5.204506266E0
1.455794463E1,-2.113435752E0,-4.964767315E0,-3.839808412E-1,5.409525529E0
1.456788963E1,-1.986691505E0,-5.225784098E0,-3.825523299E-1,5.603758458E0
1.457783463E1,-1.846744831E0,-5.410583594E0,-3.120554109E-1,5.725579436E0
1.458778063E1,-1.697405189E0,-5.503229803E0,-1.368704728E-1,5.760681918E0
1.459772563E1,-1.520709933E0,-5.542480992E0,-5.793421268E-2,5.747609122E0
1.460767063E1,-1.446725698E0,-5.564626152E0,-5.364820361E-2,5.749865875E0
1.461761563E1,-1.394373822E0,-5.497303650E0,-1.135283879E-1,5.672522761E0
1.462756062E1,-1.480757078E0,-5.514205027E0,-5.763015747E-3,5.709564941E0
1.463750562E1,-1.696174935E0,-5.526974761E0,4.096746397E-1,5.795885845E0
1.464745062E1,-1.840898784E0,-5.301689143E0,7.440453279E-1,5.661308997E0
1.465739563E1,-2.035597617E0,-4.758614956E0,1.135772524E0,5.298872822E0
1.466734063E1,-2.047447000E0,-3.842154534E0,1.698894475E0,4.673374917E0
1.467728563E1,-1.787188600E0,-2.723744148E0,2.136218258E0,3.895671152E0
1.468723063E1,-1.161821285E0,-1.522462344E0,2.333895662E0,3.019070925E0
1.469717663E1,-2.213919568E-1,-6.721994197E-1,2.466616348E0,2.566137694E0
1.470712163E1,7.653005415E-1,-5.677821815E-2,2.490037370E0,2.605608334E0
1.471706663E1,1.880717154E0,4.011002827E-1,2.422617804E0,3.093065708E0
1.472701163E1,2.947501888E0,5.290344375E-1,2.156794025E0,3.690447843E0
1.473695663E1,3.766336613E0,1.735985702E-1,1.674444342E0,4.125432317E0
1.474690163E1,4.085206332E0,-4.606483269E-1,9.957334632E-1,4.229963686E0
1.475684663E1,3.781569194E0,-1.035178780E0,1.771139163E-1,3.924694895E0
1.476679163E1,3.195540776E0,-1.420505029E0,-4.727468008E-1,3.528853203E0
1.477673663E1,2.584006219E0,-1.561622316E0,-8.446437496E-1,3.135151585E0
1.478668163E1,2.026985253E0,-1.547697172E0,-9.377717686E-1,2.717250751E0
1.479662763E1,1.458435917E0,-1.257800991E0,-8.793943369E-1,2.117175726E0
1.480657300E1,1.160036130E0,-9.202611119E-1,-7.894600672E-1,1.678038001E0
1.481651800E1,8.520603579E-1,-5.109618634E-1,-4.910813302E-1,1.108264297E0
1.482646300E1,5.197858965E-1,-2.344791949E-2,-1.009874443E-2,5.204124977E-1
1.483640800E1,2.218989104E-1,4.240231222E-1,6.008002388E-1,7.681117507E-1
1.484635300E1,-7.255283654E-2,8.298713440E-1,1.110693816E0,1.388377151E0
1.485629800E1,-4.768252337E-1,1.225652999E0,1.290040784E0,1.842224960E0
1.486624300E1,-9.080632353E-1,1.520875409E0,1.391781167E0,2.252708518E0
1.487618800E1,-1.293065549E0,1.738194196E0,1.474499388E0,2.620588869E0
1.488613300E1,-1.559766410E0,1.986481006E0,1.464191916E0,2.919389663E0
1.489607800E1,-1.758897432E0,2.171398031E0,1.335405822E0,3.097095138E0
1.490602400E1,-1.972412020E0,2.336088953E0,1.175776761E0,3.275694089E0
1.491596900E1,-2.117773801E0,2.428715866E0,9.892249274E-1,3.370785159E0
1.492591400E1,-2.186136523E0,2.447067352E0,8.774706030E-1,3.396658090E0
1.493585900E1,-2.149502547E0,2.452343295E0,7.541072166E-1,3.347092250E0
1.494580400E1,-2.078095180E0,2.618732833E0,5.101262963E-1,3.381785041E0
1.495574900E1,-1.917234769E0,2.891824116E0,1.140452635E-1,3.471518717E0
1.496569400E1,-1.662054677E0,3.119507677E0,-3.163809983E-1,3.548781598E0
1.497563900E1,-1.406150699E0,3.330948842E0,-7.112705147E-1,3.684886121E0
1.498558400E1,-1.130203636E0,3.522199572E0,-1.044731449E0,3.843789001E0
1.499552900E1,-9.288085717E-1,3.559841607E0,-1.296096307E0,3.900643955E0
1.500547400E1,-6.316554111E-1,3.471187293E0,-1.472263997E0,3.823047352E0
1.501542000E1,-3.386251223E-1,3.353136102E0,-1.627613992E0,3.742634901E0
1.502536500E1,6.427902639E-2,3.175787712E0,-1.794820386E0,3.648443450E0
1.503531000E1,8.193416780E-1,3.011004989E0,-1.887491738E0,3.646929789E0
1.504525500E1,1.575272641E0,2.871909084E0,-1.853047983E0,3.763393749E0
1.505520000E1,2.389950580E0,2.753735687E0,-1.805017784E0,4.068539444E0
1.506514500E1,3.142517055E0,2.675121626E0,-1.812774993E0,4.507531734E0
1.507509000E1,3.757559357E0,2.605128701E0,-1.845943324E0,4.930867533E0
1.508503500E1,4.222921709E0,2.475928039E0,-1.764581072E0,5.203559722E0
1.509498000E1,4.490411360E0,2.136264451E0,-1.606916164E0,5.225858738E0
1.510492500E1,4.670869299E0,1.698817291E0,-1.441930835E0,5.175148764E0
1.511487100E1,4.817971212E0,1.198379247E0,-1.193423147E0,5.106194103E0
1.512481600E1,4.803249092E0,5.665694690E-1,-9.457391846E-1,4.928146245E0
1.513476100E1,4.855255982E0,-1.045634186E-1,-6.111905949E-1,4.894690808E0
1.514470600E1,4.887578806E0,-7.038334411E-1,-3.522814406E-1,4.950546466E0
1.515465100E1,4.906976944E0,-1.130004246E0,-1.372690885E-1,5.037278543E0
1.516459600E1,5.127556722E0,-1.509979123E0,-3.295490742E-2,5.345368174E0
1.517454100E1,5.311423588E0,-1.909332842E0,5.471758626E-2,5.644445628E0
1.518448600E1,5.185200913E0,-2.137359635E0,2.923297924E-1,5.616054792E0
1.519443100E1,4.661096263E0,-1.997722862E0,6.763809098E-1,5.116073313E0
1.520437600E1,4.366270879E0,-1.924368373E0,9.909681286E-1,4.873349244E0
1.521432100E1,4.109709674E0,-1.521638471E0,1.512758889E0,4.636112240E0
1.522426700E1,3.528648466E0,-4.803475964E-1,1.933611066E0,4.052276590E0
1.523421200E1,3.072252234E0,5.318896329E-1,2.178389547E0,3.803553784E0
1.524415700E1,2.911421059E0,1.295005070E0,2.267682962E0,3.910984113E0
1.525410200E1,2.947329395E0,2.116411400E0,2.253004843E0,4.271062935E0
1.526404700E1,3.049196078E0,2.571575038E0,2.079412558E0,4.498283171E0
1.527399200E1,3.275772176E0,2.632151608E0,1.680106055E0,4.525667000E0
1.528393700E1,3.428427774E0,2.333940101E0,1.186316952E0,4.313785033E0
1.529388200E1,3.233825421E0,1.644437016E0,5.881075417E-1,3.675278280E0
1.530382700E1,2.986220981E0,7.042895240E-1,1.114114583E-1,3.070171330E0
1.531377200E1,2.723648254E0,-2.377477884E-1,-1.240007329E-1,2.736815668E0
1.532371700E1,2.270773215E0,-1.059602600E0,-2.793049733E-1,2.521344866E0
1.533366300E1,1.649870834E0,-1.570101948E0,-3.629622571E-1,2.306303427E0
1.534360800E1,1.070629279E0,-1.763127893E0,-3.257073073E-1,2.088289316E0
1.535355300E1,6.379230416E-1,-1.744571169E0,-2.228677940E-1,1.870867292E0
1.536349800E1,2.929273778E-1,-1.542035313E0,-7.990074009E-3,1.569631548E0
1.537344300E1,2.042245317E-1,-1.093513527E0,2.010227425E-1,1.130437807E0
1.538338800E1,4.101277989E-1,-4.250931627E-1,5.317903034E-1,7.948018213E-1
1.539333300E1,7.372613883E-1,2.746320248E-1,9.655121291E-1,1.245468095E0
1.540327800E1,9.489890671E-1,8.601423794E-1,1.376521688E0,1.880222625E0
1.541322300E1,1.117819233E0,1.302740936E0,1.752715756E0,2.453297027E0
1.542316800E1,1.148215399E0,1.624834810E0,2.039063846E0,2.848906480E0
1.543311400E1,1.029009383E0,1.807684261E0,2.222930712E0,3.044339608E0
1.544305900E1,8.742066872E-1,1.874969925E0,2.256027707E0,3.060949292E0
1.545300400E1,6.521341145E-1,1.818080025E0,2.171542457E0,2.906250252E0
1.546294900E1,3.080342442E-1,1.687024627E0,2.019415886E0,2.649335333E0
1.547289400E1,-1.908156967E-1,1.375338212E0,1.772206280E0,2.251373120E0
1.548283900E1,-6.761667556E-1,1.018007262E0,1.515551519E0,1.946904382E0
1.549278400E1,-1.112785365E0,7.247109246E-1,1.359091723E0,1.900165126E0
1.550272900E1,-1.571592988E0,3.600937593E-1,1.256598219E0,2.044165140E0
1.551267400E1,-2.068740805E0,-8.813040376E-2,1.167829299E0,2.377242259E0
1.552261900E1,-2.582457291E0,-4.509916502E-1,1.001692945E0,2.806397671E0
1.553256400E1,-3.048971545E0,-7.884876752E-1,8.751990328E-1,3.268625651E0
1.554251000E1,-3.560843820E0,-1.094857217E0,8.676887959E-1,3.825075801E0
1.555245500E1,-4.031283894E0,-1.393036564E0,7.878444815E-1,4.337337851E0
1.556240000E1,-4.468334028E0,-1.545297475E0,5.593341974E-1,4.760967130E0
1.557234500E1,-4.699884937E0,-1.570788119E0,2.553864992E-1,4.962007256E0
1.558229000E1,-4.683801586E0,-1.568596290E0,1.873974144E-2,4.939518478E0
1.559223500E1,-4.548795224E0,-1.588156689E0,-5.398441851E-2,4.818370469E0
1.560218000E1,-4.484264182E0,-1.597162278E0,-8.100564457E-2,4.760894298E0
1.561212500E1,-4.330926799E0,-1.643931524E0,-2.819300808E-2,4.632519039E0
1.562207000E1,-4.204619340E0,-1.767343443E0,1.310295247E-2,4.560975589E0
1.563201500E1,-4.099257776E0,-1.936155190E0,3.958513834E-2,4.533671605E0
1.564196100E1,-3.978976457E0,-2.120396570E0,4.391843677E-3,4.508697655E0
1.565190600E1,-3.706600288E0,-2.374185610E0,-9.279004991E-2,4.402755160E0
1.566185100E1,-3.439354466E0,-2.736241694E0,-1.367745968E-1,4.397145102E0
1.567179600E1,-3.280882643E0,-3.144066275E0,-1.784354236E-1,4.547656854E0
1.568174100E1,-3.077400708E0,-3.668867913E0,-4.227840972E-1,4.807258395E0
1.569168600E1,-2.778756507E0,-4.248430188E0,-6.241184232E-1,5.114701418E0
1.570163100E1,-2.439637295E0,-4.792351636E0,-5.816196539E-1,5.408950523E0
1.571157600E1,-2.207493478E0,-5.193519747E0,-5.106180471E-1,5.666251460E0
1.572152100E1,-1.990830749E0,-5.383522680E0,-5.639475775E-1,5.767474351E0
1.573146600E1,-1.803599396E0,-5.477371076E0,-7.496434522E-1,5.815198190E0
1.574141100E1,-1.624152440E0,-5.628739117E0,-9.385079330E-1,5.933074443E0
1.575135700E1,-1.400719221E0,-5.998713502E0,-1.059847598E0,6.250588368E0
1.576130200E1,-1.313822579E0,-6.433872646E0,-1.129655167E0,6.663104966E0
1.577124700E1,-1.403120672E0,-6.822539994E0,-1.026687453E0,7.040588521E0
1.578119200E1,-1.673052705E0,-7.100790861E0,-7.136731356E-1,7.330052220E0
1.579113700E1,-2.027542493E0,-7.027887776E0,-2.619464904E-1,7.319204268E0
1.580108200E1,-2.392878866E0,-6.575201603E0,3.098416185E-1,7.003937979E0
1.581102667E1,-2.478541160E0,-5.557322395E0,9.016067398E-1,6.151413918E0
1.582097167E1,-2.174339765E0,-4.371107111E0,1.542128284E0,5.119813516E0
1.583091667E1,-1.731426044E0,-3.061874011E0,1.815796688E0,3.958538394E0
1.584086167E1,-1.018283250E0,-1.798488929E0,1.992090240E0,2.870520289E0
1.585080767E1,5.303541541E-2,-9.455690306E-1,2.093171057E0,2.297450461E0
1.586075267E1,1.330725710E0,-5.718097436E-1,2.131298411E0,2.576864415E0
1.587069767E1,2.362142392E0,-4.756604683E-1,2.085488985E0,3.186727768E0
1.588064267E1,2.934865471E0,-6.300485963E-1,1.717446520E0,3.458326057E0
1.589058767E1,3.111028630E0,-1.044280556E0,1.088212441E0,3.457343970E0
1.590053267E1,2.904774529E0,-1.581126289E0,5.443032718E-1,3.351707245E0
1.591047767E1,2.328726724E0,-2.076670799E0,2.106424356E-1,3.127283165E0
1.592042267E1,1.708213767E0,-2.208193974E0,3.346830209E-2,2.791994812E0
1.593036767E1,1.212885604E0,-2.104898232E0,-6.425037503E-2,2.430188504E0
1.594031267E1,8.980662507E-1,-1.776199343E0,1.955192883E-2,1.990424421E0
1.595025767E1,7.697970504E-1,-1.142806140E0,2.729632294E-1,1.404671597E0
1.596020367E1,8.055837643E-1,-3.789299798E-1,5.742550492E-1,1.059396995E0
1.597014867E1,8.295953554E-1,4.820128834E-1,8.693570065E-1,1.294737996E0
1.598009367E1,6.731133395E-1,1.270298245E0,1.132712091E0,1.830239296E0
1.599003867E1,4.427090693E-1,1.946285491E0,1.390706449E0,2.432711031E0
1.599998367E1,1.688640797E-1,2.437741628E0,1.452899773E0,2.842888860E0
1.600992867E1,-2.441230077E-1,2.737873360E0,1.371204815E0,3.071766466E0
1.601987367E1,-6.139868796E-1,2.999178411E0,1.158957319E0,3.273413065E0
1.602981867E1,-9.322502428E-1,3.210742952E0,8.606604427E-1,3.452346625E0
1.603976367E1,-1.134664477E0,3.335215555E0,4.979716891E-1,3.557963192E0
1.604970867E1,-1.144185498E0,3.462481958E0,9.925418336E-2,3.647984808E0
1.605965467E1,-9.853856456E-1,3.551937341E0,-1.713749107E-1,3.690069526E0
1.606959967E1,-6.296404606E-1,3.687770500E0,-2.844729253E-1,3.751935929E0
1.607954467E1,-1.294936073E-1,3.843323393E0,-3.699539191E-1,3.863258883E0
1.608948967E1,3.792305267E-1,3.855746387E0,-5.004854071E-1,3.906543439E0
1.609943467E1,8.933417004E-1,3.796802360E0,-6.063364192E-1,3.947329656E0
1.610937967E1,1.279934456E0,3.692269347E0,-5.838421806E-1,3.951196887E0
1.611932467E1,1.465186527E0,3.591267468E0,-4.666252776E-1,3.906624212E0
1.612926967E1,1.465392934E0,3.520500956E0,-4.168725622E-1,3.836024786E0
1.613921467E1,1.392879274E0,3.452692550E0,-4.002103364E-1,3.744511561E0
1.614915967E1,1.289265443E0,3.462456231E0,-3.115910324E-1,3.707815732E0
1.615910467E1,1.419104621E0,3.511597985E0,-1.957279791E-1,3.792556891E0
1.616905067E1,1.821937433E0,3.440454912E0,-1.830517638E-1,3.897395792E0
1.617899567E1,2.303231109E0,3.233868105E0,-7.547527492E-2,3.970953662E0
1.618894067E1,2.708740193E0,3.056579357E0,1.030893356E-1,4.085410409E0
1.619888567E1,3.057453516E0,2.880746566E0,2.574499085E-1,4.208681888E0
1.620883067E1,3.263360292E0,2.612486252E0,2.974783389E-1,4.190835021E0
1.621877567E1,3.228697413E0,2.270418289E0,2.187409023E-1,3.953116969E0
1.622872067E1,2.972216899E0,1.940132466E0,-7.752238512E-3,3.549400989E0
1.623866567E1,2.807504928E0,1.467317837E0,-3.890935370E-1,3.191629574E0
1.624861067E1,2.800373079E0,8.828091109E-1,-7.392424250E-1,3.027857439E0
1.625855567E1,2.878781317E0,1.697136801E-1,-9.791660354E-1,3.045480377E0
1.626850167E1,2.879746692E0,-5.912517357E-1,-1.136939628E0,3.152007510E0
1.627844667E1,2.812211936E0,-1.318128469E0,-1.116940981E0,3.300538712E0
1.628839167E1,2.945309767E0,-2.016195971E0,-1.090896313E0,3.732284901E0
1.629833667E1,3.167936656E0,-2.660092528E0,-1.069351662E0,4.272637112E0
1.630828167E1,3.222305821E0,-3.129300009E0,-9.351492923E-1,4.588058146E0
1.631822667E1,3.016238832E0,-3.292344355E0,-6.897071528E-1,4.518066401E0
1.632817167E1,2.639450102E0,-3.126596256E0,-4.180496432E-1,4.113036165E0
1.633811667E1,2.324328448E0,-2.718554159E0,-1.916490711E-2,3.576787210E0
1.634806167E1,1.999681095E0,-2.006928134E0,4.157352787E-1,2.863445623E0
1.635800667E1,1.793037570E0,-1.169459503E0,8.345841998E-1,2.297640103E0
1.636795267E1,1.783748099E0,-4.500730526E-1,1.203410776E0,2.198299463E0
1.637789767E1,1.835661433E0,2.150032890E-1,1.522917842E0,2.394819005E0
1.638784267E1,1.911930760E0,8.585817575E-1,1.828997946E0,2.781703678E0
1.639778767E1,2.112825302E0,1.366862673E0,1.920268305E0,3.165402769E0
