"Time (s)","Linear Acceleration x (m/s^2)","Linear Acceleration y (m/s^2)","Linear Acceleration z (m/s^2)","Absolute acceleration (m/s^2)"
9.885791689E-3,-4.866779383E-1,7.264504713E-1,-6.856059158E-1,1.111144084E0
1.980779169E-2,-4.845359570E-1,6.847937375E-1,-9.384512150E-1,1.258732791E0
2.972979168E-2,-3.566067722E-1,6.292147833E-1,-1.053448405E0,1.277823609E0
3.965179168E-2,-2.482928033E-1,6.445935452E-1,-9.668242443E-1,1.188233678E0
4.957379168E-2,-2.726815398E-1,6.178226531E-1,-5.671664697E-1,8.818944705E-1
5.949579168E-2,-6.107125850E-1,6.639905137E-1,-4.075801671E-2,9.030584032E-1
6.941779167E-2,-8.139932299E-1,3.058666813E-1,-1.424405122E-1,8.811519191E-1
7.933979167E-2,-4.437264848E-1,4.669516253E-1,-3.736780107E-1,7.446960920E-1
8.926179167E-2,-3.080791947E-1,4.544926706E-1,-3.141907775E-1,6.326074790E-1
9.918379167E-2,-4.025745119E-1,3.249727508E-1,-2.340283746E-1,5.678404763E-1
1.091057917E-1,-3.355506563E-1,1.949996719E-1,-3.792597628E-1,5.426389985E-1
1.190277917E-1,-4.257862039E-1,1.245813614E-1,-5.885772192E-1,7.370465047E-1
1.289497917E-1,-5.494949415E-1,1.262305686E-1,-7.910750681E-1,9.714312176E-1
1.388717917E-1,-6.198501751E-1,8.080325782E-2,-1.025057834E0,1.200619411E0
1.487937917E-1,-6.629339218E-1,-5.137071311E-2,-1.247640284E0,1.413763281E0
1.587157917E-1,-6.867807676E-1,-2.178719330E-1,-1.391864197E0,1.567297657E0
1.686377916E-1,-7.134037252E-1,-3.773246267E-1,-1.436117095E0,1.647346672E0
1.785597916E-1,-7.045860509E-1,-5.021843156E-1,-1.431353953E0,1.672544388E0
1.884817916E-1,-5.527438737E-1,-6.109352177E-1,-1.314835317E0,1.551631252E0
1.984037916E-1,-3.114633438E-1,-7.536189741E-1,-1.266601635E0,1.506396586E0
2.083257916E-1,-1.943991628E-1,-8.203456450E-1,-1.177002411E0,1.447788896E0
2.182477916E-1,-2.283498511E-1,-7.336904937E-1,-1.098994122E0,1.340982280E0
2.281697916E-1,-2.761771515E-1,-5.817201895E-1,-1.114933047E0,1.287535591E0
2.380917916E-1,-3.701350366E-1,-4.444228882E-1,-1.257796898E0,1.384400479E0
2.480137916E-1,-4.225067199E-1,-3.764019361E-1,-1.488577729E0,1.592499294E0
2.579357916E-1,-4.207049735E-1,-3.628893131E-1,-1.765665584E0,1.851014933E0
2.678577916E-1,-4.451410724E-1,-3.141480929E-1,-1.981471696E0,2.055010871E0
2.777797916E-1,-3.941442887E-1,-3.007252246E-1,-2.304837924E0,2.357554504E0
2.877017916E-1,-1.679467978E-1,-3.075819620E-1,-2.794132345E0,2.816023500E0
2.976237916E-1,9.697256327E-2,-2.626908410E-1,-3.278907453E0,3.290842482E0
3.075457916E-1,1.522275817E-1,-2.048835129E-1,-3.553183967E0,3.562340073E0
3.174677916E-1,6.414208460E-1,7.116412282E-2,-3.703301874E0,3.759112901E0
3.273897916E-1,4.682823054E-1,2.280133438E-1,-3.685415241E0,3.722037601E0
3.373117916E-1,2.652207119E-1,2.304375994E-1,-3.371896893E0,3.390152234E0
3.472337916E-1,3.875186625E-1,2.149456939E-1,-3.046310477E0,3.078372929E0
3.571557916E-1,3.755741896E-1,2.956016019E-1,-2.464732375E0,2.510645726E0
3.670777916E-1,1.582495560E-1,3.790416616E-1,-1.383772820E0,1.443448205E0
3.769997916E-1,-2.269324129E-1,6.741816258E-1,8.293398321E-2,7.161684370E-1
3.869217916E-1,-1.076648988E0,1.230919586E0,1.504313756E0,2.222002688E0
3.968437916E-1,-2.396266450E0,2.041303915E0,3.066814908E0,4.394811515E0
4.067657917E-1,-3.562021157E0,3.056042583E0,4.601468697E0,6.572739547E0
4.166877917E-1,-3.723087097E0,3.471745117E0,5.777304003E0,7.700106054E0
4.266097917E-1,-2.759585533E0,2.684752575E0,6.488582704E0,7.544860119E0
4.365317917E-1,-1.428970774E0,1.333107281E0,6.926847889E0,7.197246291E0
4.464537917E-1,-1.332773405E-1,8.868852049E-2,7.485140040E0,7.486851803E0
4.563757917E-1,7.870798849E-1,-6.326716572E-1,7.974991116E0,8.038672245E0
4.662977917E-1,1.023821733E0,-5.902246723E-1,7.929520243E0,8.017098440E0
4.762197917E-1,8.116208683E-1,1.915904528E-1,6.814488963E0,6.865325568E0
4.861417917E-1,4.304840031E-1,1.389807147E0,5.487239422E0,5.676854486E0
4.960637917E-1,-6.942881539E-2,2.587319251E0,4.798725686E0,5.452229771E0
5.059857917E-1,-5.265844542E-1,3.102121566E0,5.466912162E0,6.307739530E0
5.159077917E-1,-8.789711447E-1,2.709749422E0,7.773542842E0,8.279088146E0
5.258297917E-1,-2.197245063E0,1.281654122E0,1.071285220E1,1.101070958E1
5.357517917E-1,-3.801611111E0,3.562240720E-2,1.324812538E1,1.378282780E1
5.456737917E-1,-4.911655301E0,-3.135078228E-1,1.459259322E1,1.540020850E1
5.555957917E-1,-5.089326457E0,-5.134241259E-1,1.409403739E1,1.499355655E1
5.655177917E-1,-3.964221008E0,-7.313615477E-1,1.208600063E1,1.274053959E1
5.754397917E-1,-1.914602061E0,-8.260349858E-1,9.474325383E0,9.701076039E0
5.853617917E-1,3.151536678E-1,-9.321005541E-1,6.985981366E0,7.054932241E0
5.952876667E-1,2.009859928E0,-1.566341019E0,4.643227172E0,5.296462941E0
6.052096667E-1,3.266099128E0,-2.470051587E0,2.056889668E0,4.582505151E0
6.151316667E-1,4.318863993E0,-3.033640730E0,-6.597980601E-1,5.318918664E0
6.250536666E-1,4.850143177E0,-3.252166382E0,-3.050647942E0,6.588393422E0
6.349756666E-1,4.894341988E0,-3.241433818E0,-4.774207726E0,7.566672723E0
6.448976666E-1,4.354683452E0,-3.145609063E0,-5.898958833E0,7.978460983E0
6.548196666E-1,3.888893083E0,-3.495643857E0,-6.429924606E0,8.287758794E0
6.647416666E-1,3.313497535E0,-3.872941294E0,-6.759897603E0,8.466118106E0
6.746636666E-1,2.775396697E0,-4.103664823E0,-7.007077535E0,8.581493308E0
6.845856666E-1,2.417866942E0,-4.227494817E0,-7.437601007E0,8.890202569E0
6.945076666E-1,2.575601723E0,-4.046155410E0,-7.855644767E0,9.204143227E0
7.044296666E-1,3.019812358E0,-3.508883415E0,-8.331264889E0,9.531080954E0
7.143516666E-1,3.262294344E0,-2.773239951E0,-8.894662244E0,9.871597674E0
7.242736666E-1,3.361228064E0,-1.944648271E0,-9.481802802E0,1.024617467E1
7.341956666E-1,3.308971790E0,-1.244067051E0,-9.738181574E0,1.035997961E1
7.441176666E-1,2.896622634E0,-7.355744666E-1,-9.434581273E0,9.896606301E0
7.540396666E-1,2.709263226E0,-3.083096480E-1,-9.181430749E0,9.577778065E0
7.639616666E-1,2.852140525E0,-1.377127460E-1,-9.135373986E0,9.571244863E0
7.738836666E-1,3.028284973E0,-2.814902240E-1,-9.111845959E0,9.606012878E0
7.838056666E-1,3.257203758E0,-4.747167277E-1,-9.021877776E0,9.603593645E0
7.937276666E-1,3.489929958E0,-5.304266596E-1,-8.704636506E0,9.393170937E0
8.036496666E-1,3.727067297E0,-4.814918965E-1,-8.237560920E0,9.054295941E0
8.135716666E-1,3.884362076E0,-4.353111720E-1,-7.671830526E0,8.610153783E0
8.234936666E-1,3.950588810E0,-5.217985082E-1,-7.130502902E0,8.168445217E0
8.334156666E-1,4.075161985E0,-7.061658955E-1,-6.581189736E0,7.772880664E0
8.433376666E-1,4.246807001E0,-9.325013807E-1,-5.840743369E0,7.281429230E0
8.532596666E-1,4.286261673E0,-1.049851198E0,-5.146417501E0,6.779368685E0
8.631816667E-1,4.027072145E0,-1.034794033E0,-4.493371806E0,6.121968550E0
8.731036667E-1,3.323909964E0,-6.837330526E-1,-2.975290196E0,4.513116449E0
8.830246667E-1,2.289562658E0,1.075495917E-1,-8.630999011E-1,2.449205079E0
8.929466667E-1,9.810470116E-1,8.810929531E-1,6.460179269E-1,1.468372294E0
9.028686667E-1,-2.907054359E-1,1.711338519E0,1.575236388E0,2.344047537E0
9.127906667E-1,-1.521267757E0,2.513130949E0,2.175064820E0,3.655268762E0
9.227126667E-1,-2.700492695E0,3.212334564E0,2.818284270E0,5.055143952E0
9.326346667E-1,-3.697320757E0,3.769603160E0,3.504308261E0,6.337212727E0
9.425566667E-1,-4.653838114E0,3.863302744E0,4.100979196E0,7.307622572E0
9.524786667E-1,-5.750272910E0,3.899933796E0,4.969346269E0,8.542220115E0
9.624006667E-1,-6.554629344E0,4.478628051E0,6.333819770E0,1.015571504E1
9.723226667E-1,-6.114721676E0,5.240199823E0,7.601358714E0,1.107385071E1
9.822446667E-1,-4.682492394E0,5.890119597E0,7.880503619E0,1.089594334E1
9.921666667E-1,-3.827845813E0,6.398394665E0,7.650063096E0,1.068247739E1
1.002088667E0,-3.732267226E0,6.872212676E0,7.482243329E0,1.082317379E1
1.012010667E0,-4.557924482E0,7.897600293E0,7.687596374E0,1.192668873E1
1.021932667E0,-6.539493241E0,9.520265202E0,8.939378825E0,1.460523588E1
1.031854667E0,-8.771990583E0,1.037004281E1,1.121581565E1,1.761477015E1
1.041776667E0,-1.115962859E1,9.213635459E0,1.453385092E1,2.051002709E1
1.051698667E0,-1.251511843E1,7.101681392E0,1.726611680E1,2.247622871E1
1.061620667E0,-1.188050842E1,5.179642550E0,1.734917182E1,2.165569071E1
1.071542667E0,-9.794463363E0,3.188636969E0,1.555701777E1,1.865796666E1
1.081464667E0,-6.850549911E0,1.093442776E0,1.259631754E1,1.438029439E1
1.091386667E0,-3.759217628E0,-7.493850052E-1,9.008219265E0,9.789857475E0
1.101308667E0,-9.402960116E-1,-2.231730772E0,5.501884943E0,6.011282455E0
1.111230667E0,1.260619641E0,-3.664016771E0,2.225306436E0,4.468351990E0
1.121152667E0,2.788343602E0,-5.296509680E0,-7.807839686E-1,6.036348104E0
1.131074667E0,3.903650286E0,-6.625007601E0,-2.691438282E0,8.146965772E0
1.140996667E0,4.206843328E0,-7.527155793E0,-3.447828251E0,9.286717653E0
1.150918667E0,3.655349151E0,-7.928079489E0,-3.661595439E0,9.466958485E0
1.160840667E0,2.671560380E0,-7.703420693E0,-4.017668653E0,9.089641722E0
1.170762667E0,2.092366480E0,-7.017034759E0,-4.904814643E0,8.813284347E0
1.180684667E0,1.861450578E0,-6.120372425E0,-6.547840726E0,9.154134315E0
1.190606667E0,1.693691622E0,-5.197946674E0,-8.353342806E0,9.983264845E0
1.200528667E0,1.448843852E0,-4.339936774E0,-9.820885177E0,1.083438902E1
1.210450667E0,1.372319002E0,-3.474147153E0,-1.079309471E1,1.142120183E1
1.220372667E0,1.658839293E0,-2.689153190E0,-1.142918406E1,1.185788940E1
1.230294667E0,2.112724146E0,-2.134161208E0,-1.190179696E1,1.227481235E1
1.240216667E0,2.698115802E0,-1.670023263E0,-1.206880981E1,1.247898140E1
1.250137667E0,3.140524324E0,-1.504999634E0,-1.201136677E1,1.250603248E1
1.260059667E0,3.510347850E0,-1.613753752E0,-1.177824179E1,1.239571389E1
1.269981667E0,3.817497995E0,-1.906642538E0,-1.122417249E1,1.200794008E1
1.279903667E0,4.078646341E0,-2.254876975E0,-1.055502532E1,1.153812748E1
1.289825667E0,4.310666782E0,-2.492112547E0,-9.801872955E0,1.099405232E1
1.299747667E0,4.459466726E0,-2.354611178E0,-9.115154314E0,1.041715294E1
1.309669667E0,4.479695753E0,-2.039194239E0,-8.615716728E0,9.922528001E0
1.319591667E0,4.348768993E0,-1.831817474E0,-8.140139290E0,9.408996475E0
1.329513667E0,3.999546377E0,-1.573429014E0,-7.419819624E0,8.574717100E0
1.339435667E0,3.762303788E0,-1.207374896E0,-6.629821613E0,7.717980212E0
1.349357667E0,3.508498961E0,-9.313760841E-1,-5.829147756E0,6.867021911E0
1.359279667E0,3.134948419E0,-7.361004236E-1,-4.972118434E0,5.923825381E0
1.369201667E0,2.793663983E0,-5.345702890E-1,-3.994594955E0,4.903785548E0
1.379123667E0,2.150949149E0,-3.547502813E-1,-2.817172129E0,3.562146657E0
1.389045667E0,1.231780297E0,-2.957433969E-2,-1.460939695E0,1.911152043E0
1.398967667E0,2.637339842E-1,4.728894728E-1,1.482725251E-1,5.613954129E-1
1.408889667E0,-1.057644367E0,1.062442300E0,1.776177124E0,2.324263415E0
1.418811667E0,-2.740643771E0,1.751843936E0,3.492312698E0,4.772455703E0
1.428733667E0,-4.592297924E0,3.006928310E0,5.331755526E0,7.652348337E0
1.438655667E0,-6.383637462E0,4.844217024E0,6.657589456E0,1.041828984E1
1.448577667E0,-8.522572337E0,6.827368625E0,7.447026719E0,1.321761735E1
1.458499667E0,-1.081611169E1,9.246600891E0,8.391729777E0,1.651995850E1
1.468421667E0,-1.260121283E1,1.201688420E1,9.423513663E0,1.979895655E1
1.478343667E0,-1.296432141E1,1.441198325E1,9.970870936E0,2.179901737E1
1.488265667E0,-1.176169183E1,1.521887796E1,1.056023285E1,2.194242828E1
1.498187667E0,-8.676423690E0,1.290471607E1,1.191109637E1,1.958791060E1
1.508108667E0,-3.524073020E0,8.838414368E0,1.411624746E1,1.702366299E1
1.518030667E0,1.017028292E0,6.029156445E0,1.608938336E1,1.721201124E1
1.527952667E0,2.935293779E0,5.482223681E0,1.696841751E1,1.807202033E1
1.537874667E0,1.620270035E0,6.077449769E0,1.699501883E1,1.812157101E1
1.547796667E0,-4.163050899E-1,5.554329790E0,1.568775449E1,1.664720788E1
1.557718667E0,-1.931218970E0,3.848473620E0,1.399210171E1,1.463964707E1
1.567640667E0,-3.615544815E0,2.131605974E0,1.188445880E1,1.260381963E1
1.577562667E0,-4.047026645E0,7.765160859E-2,8.799135697E0,9.685517201E0
1.587484667E0,-3.405594105E0,-1.925907944E0,5.518943610E0,6.765052194E0
1.597402750E0,-2.177974979E0,-3.463412835E0,2.790574315E0,4.952384121E0
1.607324750E0,-1.063861712E0,-4.825867292E0,8.187247968E-1,5.009102430E0
1.617246750E0,-8.422738731E-2,-6.331627064E0,-4.308491617E-1,6.346828068E0
1.627168750E0,5.454841170E-1,-7.773068048E0,-1.414599926E0,7.919547510E0
1.637090750E0,5.384212652E-1,-8.893231430E0,-2.519356479E0,9.258867090E0
1.647012750E0,4.311099476E-1,-9.174148042E0,-4.079684222E0,1.004961051E1
1.656934750E0,7.162184286E-1,-8.553461423E0,-6.069485861E0,1.051253203E1
1.666856750E0,1.361783196E0,-7.630791843E0,-8.018895519E0,1.115285268E1
1.676778750E0,1.995341291E0,-6.987112218E0,-9.642888331E0,1.207420471E1
1.686700750E0,2.563053891E0,-6.500035645E0,-1.066996638E1,1.275413232E1
1.696622750E0,3.273936151E0,-5.953567150E0,-1.125676721E1,1.314832414E1
1.706544750E0,3.864611936E0,-5.279890139E0,-1.156084816E1,1.328403837E1
1.716466750E0,4.500926993E0,-4.605848261E0,-1.172785399E1,1.337963905E1
1.726388750E0,5.152315003E0,-4.133217820E0,-1.177833768E1,1.350403932E1
1.736309750E0,5.651446195E0,-3.906667449E0,-1.153970579E1,1.343002995E1
1.746231750E0,6.148199909E0,-3.882037808E0,-1.111787947E1,1.328449561E1
1.756153750E0,6.556303986E0,-4.048103995E0,-1.058682833E1,1.309401397E1
1.766075750E0,6.916564976E0,-4.260707002E0,-9.790405396E0,1.272181328E1
1.775997750E0,7.247228529E0,-4.465054910E0,-8.785940870E0,1.223322499E1
1.785919750E0,7.392503772E0,-4.645276036E0,-7.910527318E0,1.178151705E1
1.795841750E0,7.303393375E0,-4.672370279E0,-7.018828685E0,1.115502375E1
1.805763750E0,7.063755766E0,-4.444194968E0,-5.991147789E0,1.027333277E1
1.815685750E0,6.754169086E0,-4.037069714E0,-4.774581948E0,9.203986348E0
1.825607750E0,6.385826075E0,-3.567807269E0,-3.546221688E0,8.129188867E0
1.835529750E0,5.911908077E0,-2.904162326E0,-2.356960005E0,6.995718433E0
1.845451750E0,5.347927170E0,-2.072801696E0,-1.096528351E0,5.839452570E0
1.855373750E0,4.642169411E0,-1.354903947E0,1.585647941E-1,4.838454747E0
1.865295750E0,3.678016759E0,-6.901690829E-1,1.716817945E0,4.117232626E0
1.875217750E0,2.629492294E0,3.919213235E-2,3.600305509E0,4.458471207E0
1.885139750E0,1.638076415E0,5.864225203E-1,5.107576786E0,5.395787833E0
1.895061750E0,1.004261042E0,8.723232991E-1,5.825040672E0,5.974996821E0
1.904983750E0,1.818343735E-1,9.093192172E-1,5.835036487E0,5.908263364E0
1.914905750E0,-9.680761331E-1,9.935360795E-1,5.499392860E0,5.671649422E0
1.924827750E0,-2.320705513E0,1.500059322E0,5.188915649E0,5.878834720E0
1.934748750E0,-3.112413250E0,2.071373806E0,4.612966077E0,5.937774138E0
1.944670750E0,-3.382637351E0,2.435311525E0,3.755180710E0,5.610201408E0
1.954592750E0,-3.815345928E0,2.779415488E0,3.077005436E0,5.634711834E0
1.964514750E0,-4.919276562E0,3.326376904E0,3.233319637E0,6.761539845E0
1.974436750E0,-5.988893688E0,4.176315308E0,4.136142012E0,8.391431815E0
1.984358750E0,-6.470561001E0,5.081505221E0,4.825841564E0,9.538270377E0
1.994280750E0,-6.586507779E0,5.845345128E0,5.827471944E0,1.055980936E1
2.004202750E0,-6.417198141E0,6.442363973E0,6.948952703E0,1.144431864E1
2.014124750E0,-6.307212600E0,6.517722303E0,8.218666812E0,1.223961270E1
2.024046750E0,-6.626916132E0,5.920913374E0,1.037147654E1,1.365799247E1
2.033968750E0,-7.218850822E0,5.604808803E0,1.262913212E1,1.558912015E1
2.043890750E0,-8.523849369E0,5.800857173E0,1.485320362E1,1.808102900E1
2.053812750E0,-9.476101182E0,6.058662080E0,1.695774166E1,2.034868257E1
2.063734750E0,-9.186929471E0,5.491658163E0,1.816777967E1,2.108616136E1
2.073656750E0,-7.383610157E0,3.834890538E0,1.826275951E1,2.006869376E1
2.083578750E0,-4.602706260E0,1.731201510E0,1.724895288E1,1.793622979E1
2.093500750E0,-1.601103886E0,-3.127757514E-1,1.495908149E1,1.504777330E1
2.103421750E0,1.050340318E0,-2.128451986E0,1.144512942E1,1.168864877E1
2.113343750E0,2.753833920E0,-3.570523885E0,7.303629602E0,8.583428653E0
2.123265750E0,3.440809253E0,-4.427364342E0,3.320404558E0,6.516579606E0
2.133187750E0,3.411922546E0,-4.592459307E0,-3.744013113E-1,5.733417331E0
2.143109750E0,3.090194708E0,-4.287596008E0,-3.626165990E0,6.409513448E0
2.153031750E0,2.868604530E0,-4.160940054E0,-6.514047913E0,8.244703409E0
2.162953750E0,2.801930777E0,-4.256696981E0,-9.122819429E0,1.044969471E1
2.172875750E0,2.873842759E0,-4.271475819E0,-1.101931179E1,1.216263582E1
2.182797750E0,3.309744499E0,-4.016501548E0,-1.228039833E1,1.333772381E1
2.192719750E0,3.900409759E0,-3.531264510E0,-1.303211871E1,1.405415040E1
2.202641750E0,4.609280577E0,-2.898764176E0,-1.338993089E1,1.445470686E1
2.212563750E0,5.242389606E0,-2.497118933E0,-1.340340638E1,1.460717475E1
2.222485750E0,5.635334777E0,-2.518364207E0,-1.311280912E1,1.449292652E1
2.232407750E0,5.883533294E0,-2.712058488E0,-1.243370647E1,1.402028109E1
2.242329750E0,5.947711163E0,-3.050922176E0,-1.145857568E1,1.326583396E1
2.252251750E0,6.000101046E0,-3.597207654E0,-1.043444287E1,1.256259183E1
2.262173750E0,6.227136151E0,-4.147663366E0,-9.647128147E0,1.220849776E1
2.272095750E0,6.578300042E0,-4.489574624E0,-9.177467507E0,1.215138764E1
2.282016750E0,6.917337393E0,-4.575585997E0,-8.925456020E0,1.218397755E1
2.291938750E0,7.203072696E0,-4.594697036E0,-8.738818744E0,1.222139313E1
2.301860750E0,7.305888966E0,-4.695213012E0,-8.378202828E0,1.206711736E1
2.311782750E0,7.147651616E0,-4.558265959E0,-7.833007271E0,1.154221448E1
2.321704750E0,6.741312228E0,-4.079623995E0,-7.346462796E0,1.077307468E1
2.331626750E0,5.807969141E0,-3.412636784E0,-6.804236455E0,9.574770446E0
2.341548750E0,4.377249026E0,-2.546655375E0,-5.967441423E0,7.826628889E0
2.351470750E0,2.879074262E0,-1.501329337E0,-4.907278075E0,5.884253266E0
2.361392750E0,1.306043444E0,-3.970016769E-1,-3.691302803E0,3.935616367E0
2.371314750E0,-6.517370886E-1,7.705414009E-1,-2.189519722E0,2.410911009E0
2.381236750E0,-2.725742142E0,2.089771485E0,-5.320673883E-1,3.475616606E0
2.391158750E0,-4.529858431E0,3.334572946E0,1.093953822E0,5.730246863E0
2.401080750E0,-5.639448293E0,4.062572930E0,2.965405478E0,7.556553812E0
2.411002750E0,-5.908412611E0,4.373919037E0,4.851320221E0,8.807713393E0
2.420924750E0,-5.563483021E0,4.292331083E0,6.020469237E0,9.253242636E0
2.430845750E0,-5.079920626E0,4.237038057E0,5.977695685E0,8.915768658E0
2.440767750E0,-4.908468568E0,4.581808019E0,5.508398741E0,8.684957404E0
2.450689750E0,-5.021144999E0,5.544881859E0,5.311325355E0,9.174300461E0
2.460611750E0,-6.063342776E0,7.008994837E0,5.365195752E0,1.070866284E1
2.470533750E0,-6.955065383E0,8.343174498E0,5.575835849E0,1.220948159E1
2.480455750E0,-7.538166685E0,8.696711774E0,5.835035318E0,1.290365800E1
2.490377750E0,-8.863923431E0,7.680407807E0,6.135006251E0,1.323616653E1
2.500299750E0,-1.059511500E1,6.425360270E0,7.441156699E0,1.445380675E1
2.510221750E0,-1.281888362E1,5.911203488E0,1.142225160E1,1.815857747E1
2.520143750E0,-1.611473923E1,5.846415169E0,1.710936581E1,2.421973966E1
2.530065750E0,-1.887928174E1,5.806370512E0,2.208975864E1,2.963272944E1
2.539987750E0,-1.774336186E1,4.528208347E0,2.383794748E1,3.005959583E1
2.549909750E0,-1.307791527E1,2.001994253E0,2.169449154E1,2.541044691E1
2.559831750E0,-6.984605516E0,-6.798253584E-1,1.736295605E1,1.872749635E1
2.569753750E0,-1.399490136E0,-2.712287114E0,1.233135447E1,1.270343958E1
2.579674750E0,2.093315483E0,-3.785812519E0,7.527320684E0,8.681872080E0
2.589596750E0,3.595127215E0,-4.522490355E0,3.103849418E0,6.558333623E0
2.599519500E0,3.926584235E0,-4.724390618E0,-7.734731948E-1,6.191622667E0
2.609441500E0,3.870925759E0,-4.333714167E0,-3.953773203E0,7.028333178E0
2.619363500E0,3.728868824E0,-4.102182553E0,-6.491228569E0,8.536299710E0
2.629285500E0,3.744373594E0,-4.383423101E0,-8.330047499E0,1.013037132E1
2.639207500E0,3.963787437E0,-4.699827050E0,-9.637296638E0,1.143142474E1
2.649129500E0,4.351279495E0,-4.382712665E0,-1.050859258E1,1.218902464E1
2.659051500E0,5.147462983E0,-4.050769156E0,-1.117875600E1,1.295645367E1
2.668973500E0,6.124725677E0,-3.886925495E0,-1.186486829E1,1.390667300E1
2.678895500E0,6.426515679E0,-3.075558250E0,-1.224179618E1,1.416406495E1
2.688817500E0,6.950198745E0,-2.620553071E0,-1.223971691E1,1.431723545E1
2.698739500E0,7.327943494E0,-2.524527757E0,-1.202108250E1,1.430309130E1
2.708661500E0,7.359272876E0,-2.460958582E0,-1.169496106E1,1.403521744E1
2.718583500E0,7.259801213E0,-2.359546813E0,-1.112631115E1,1.349321958E1
2.728504500E0,7.034790414E0,-2.325166647E0,-1.050627475E1,1.285599024E1
2.738426500E0,6.687060592E0,-2.279458085E0,-9.977368362E0,1.222540748E1
2.748348500E0,6.100495400E0,-2.030729518E0,-9.476431550E0,1.145175364E1
2.758270500E0,5.486828948E0,-1.556097282E0,-9.066100852E0,1.071078500E1
2.768192500E0,4.982668566E0,-1.005849146E0,-8.483174382E0,9.889538217E0
2.778114500E0,4.374130706E0,-5.380549371E-1,-7.751634495E0,8.916858185E0
2.788036500E0,3.781158135E0,-1.823767027E-1,-6.875153825E0,7.848449415E0
2.797958500E0,3.344089290E0,9.933162242E-2,-5.945136049E0,6.821835720E0
2.807880500E0,3.024585732E0,3.767293802E-1,-4.840891128E0,5.720513158E0
2.817802500E0,2.677268139E0,6.565850151E-1,-3.511227272E0,4.464032429E0
2.827724500E0,2.355414585E0,8.951777261E-1,-2.271459678E0,3.392469617E0
2.837646500E0,2.027120908E0,1.134311597E0,-1.212518983E0,2.620321404E0
2.847568500E0,1.456642576E0,1.519699534E0,-2.594123071E-1,2.120987745E0
2.857489500E0,7.075961244E-1,2.127247460E0,7.980829561E-1,2.379666034E0
2.867411500E0,-7.987121165E-2,2.990456119E0,1.793042833E0,3.487722726E0
2.877333500E0,-1.326312232E0,4.048605101E0,3.028551314E0,5.227086231E0
2.887255500E0,-2.858721274E0,5.009423085E0,4.712220808E0,7.447928029E0
2.897177500E0,-4.531956997E0,5.748612885E0,6.965844725E0,1.010485908E1
2.907099500E0,-5.950973909E0,6.337658467E0,9.307504320E0,1.273615491E1
2.917021500E0,-6.570836656E0,7.127242495E0,1.070641792E1,1.444302131E1
2.926943500E0,-6.434487773E0,7.725330210E0,1.155510151E1,1.531677938E1
2.936865500E0,-5.685237839E0,7.636672972E0,1.202791906E1,1.533986768E1
2.946787500E0,-4.865834472E0,7.223602270E0,1.207645797E1,1.488951349E1
2.956709500E0,-3.832475638E0,6.722728023E0,1.177782196E1,1.409255235E1
2.966631500E0,-3.221285774E0,6.114059186E0,1.109740837E1,1.307328858E1
2.976553500E0,-3.717869335E0,4.725066556E0,1.068946918E1,1.226432052E1
2.986474500E0,-4.275479115E0,3.836458762E0,1.008947586E1,1.161015334E1
2.996396500E0,-5.077598696E0,3.824787135E0,9.508660233E0,1.143790298E1
3.006318500E0,-7.181226329E0,4.387110355E0,1.043573861E1,1.340602063E1
3.016240500E0,-1.044641329E1,4.846629000E0,1.334241992E1,1.762491227E1
3.026162500E0,-1.278372548E1,4.603473707E0,1.757971233E1,2.221850339E1
3.036084500E0,-1.256451337E1,3.489623564E0,2.078895664E1,2.454027683E1
3.046006500E0,-9.145269814E0,1.150489966E0,1.969404446E1,2.174430901E1
3.055928500E0,-3.757014397E0,-2.251175687E0,1.481351506E1,1.544743272E1
3.065850500E0,8.561507776E-1,-5.687876102E0,8.673763792E0,1.040764657E1
3.075772500E0,3.858321209E0,-8.022381045E0,2.759096414E0,9.319756070E0
3.085694500E0,5.339556296E0,-9.054297078E0,-2.499227439E0,1.080450345E1
3.095616500E0,5.608652762E0,-8.996533020E0,-6.237709671E0,1.230055341E1
3.105538500E0,4.963470987E0,-8.462469392E0,-8.327395787E0,1.286837026E1
3.115459500E0,4.226028043E0,-7.801709465E0,-9.149728315E0,1.274533294E1
3.125381500E0,3.572892593E0,-7.148475489E0,-9.364141036E0,1.231070269E1
3.135303500E0,2.988318962E0,-6.655788513E0,-9.240261340E0,1.177335978E1
3.145225500E0,2.764423520E0,-6.487262987E0,-9.434501751E0,1.177864346E1
3.155147500E0,2.568506127E0,-6.483114388E0,-1.020137285E1,1.235702246E1
3.165069500E0,2.400518545E0,-6.805751469E0,-1.129163416E1,1.340081133E1
3.174991500E0,2.535859076E0,-7.236467314E0,-1.257748951E1,1.473059003E1
3.184913500E0,2.953052358E0,-7.500292515E0,-1.388200098E1,1.605256544E1
3.194835500E0,3.355726711E0,-7.663787096E0,-1.531909222E1,1.745477358E1
3.204757500E0,3.607599910E0,-7.821306408E0,-1.632772990E1,1.846029184E1
3.214679500E0,3.693707470E0,-7.840827338E0,-1.654413068E1,1.867699944E1
3.224601500E0,3.705442247E0,-7.799749478E0,-1.631867725E1,1.846254644E1
3.234523500E0,3.715141024E0,-7.589578913E0,-1.601579732E1,1.810827835E1
3.244444500E0,3.714564781E0,-7.235645780E0,-1.570028157E1,1.768195132E1
3.254366500E0,3.628555162E0,-7.094504519E0,-1.482052119E1,1.682695027E1
3.264288500E0,3.305021996E0,-7.026279792E0,-1.328521778E1,1.538794299E1
3.274210500E0,2.920661122E0,-6.688477373E0,-1.175771221E1,1.383870613E1
3.284132500E0,2.809624836E0,-6.053608916E0,-1.062460017E1,1.254680443E1
3.294054500E0,2.683579916E0,-5.356264130E0,-9.485887667E0,1.121932402E1
3.303976500E0,2.380496802E0,-4.561764641E0,-8.231025487E0,9.707020254E0
3.313898500E0,1.776242320E0,-3.560403817E0,-6.625919182E0,7.728797909E0
3.323820500E0,9.806014538E-1,-2.038501052E0,-4.284484119E0,4.844983996E0
3.333742500E0,4.843824676E-1,-3.114829320E-1,-1.651216278E0,1.748760472E0
3.343664500E0,1.645406485E-1,1.217065194E0,1.044058362E0,1.611948874E0
3.353586500E0,-2.075627071E-1,2.762937742E0,4.514265077E0,5.296743946E0
3.363507500E0,-7.643331197E-1,4.259774956E0,8.853571520E0,9.854725590E0
3.373429500E0,-1.213660652E0,5.218168100E0,1.316137960E1,1.421000223E1
3.383351500E0,-1.148768545E0,5.900406019E0,1.590780276E1,1.700566520E1
3.393273500E0,-5.931156819E-1,6.222810380E0,1.656291895E1,1.770326070E1
3.403195500E0,1.991237131E-1,6.186214997E0,1.580362525E1,1.697243287E1
3.413117500E0,1.000129838E0,6.591330562E0,1.470099475E1,1.614203038E1
3.423039500E0,1.561788231E0,7.397224229E0,1.395806156E1,1.587405403E1
3.432961500E0,1.561394713E0,7.839551475E0,1.384869758E1,1.599008897E1
3.442883500E0,1.030751414E0,7.852392545E0,1.455603058E1,1.657107550E1
3.452805500E0,-5.265230584E-1,7.309186796E0,1.671541667E1,1.825120798E1
3.462727500E0,-2.661918906E0,7.256185294E0,1.954272905E1,2.101562028E1
3.472648500E0,-5.142261300E0,8.005888388E0,2.237952092E1,2.431830703E1
3.482570500E0,-7.900134476E0,8.525331638E0,2.533194149E1,2.787114393E1
3.492492500E0,-9.715654006E0,8.261134554E0,2.719234308E1,3.003437695E1
3.502414500E0,-8.890839919E0,6.716674985E0,2.489981588E1,2.727932529E1
3.512336500E0,-6.030783141E0,4.196763313E0,1.883693152E1,2.021912849E1
3.522258500E0,-2.625654474E0,1.563046698E0,1.184791838E1,1.223561794E1
3.532180500E0,4.365873268E-1,-8.960387287E-1,5.644225468E0,5.731559564E0
3.542102500E0,2.737713146E0,-3.055219295E0,6.915724146E-1,4.160253672E0
3.552024500E0,3.916155434E0,-4.253894995E0,-2.737169355E0,6.397186264E0
3.561946500E0,3.840831894E0,-4.670165587E0,-4.981239506E0,7.834231504E0
3.571868500E0,2.895599956E0,-4.582487465E0,-6.392239886E0,8.381194499E0
3.581790500E0,1.881977521E0,-4.110631195E0,-7.660752391E0,8.895294004E0
3.591710750E0,1.050847856E0,-3.387524162E0,-9.227892725E0,9.886030817E0
3.601632750E0,4.339522791E-1,-2.797007421E0,-1.083575833E1,1.119934032E1
3.611554750E0,2.931986886E-1,-2.205023614E0,-1.230595417E1,1.250538294E1
3.621476750E0,5.040802753E-1,-1.554212140E0,-1.353553006E1,1.363379061E1
3.631398750E0,9.249815691E-1,-1.165671676E0,-1.460021214E1,1.467585009E1
3.641320750E0,1.391799878E0,-1.359236149E0,-1.530814506E1,1.543126486E1
3.651242750E0,1.782684198E0,-2.169598258E0,-1.522901586E1,1.548573678E1
3.661164750E0,2.377157457E0,-3.216597769E0,-1.455800577E1,1.509744716E1
3.671086750E0,3.072732583E0,-4.094786410E0,-1.384786844E1,1.476388911E1
3.681008750E0,3.656540521E0,-4.859777927E0,-1.319668509E1,1.453066507E1
3.690930750E0,4.249216638E0,-5.555116825E0,-1.282787664E1,1.461059834E1
3.700851750E0,4.700668464E0,-5.933096048E0,-1.260761670E1,1.470543816E1
3.710773750E0,5.007922690E0,-5.912127348E0,-1.226792856E1,1.450981084E1
3.720695750E0,5.156958861E0,-5.744104097E0,-1.165665128E1,1.398093257E1
3.730617750E0,5.119203390E0,-5.509317924E0,-1.083791946E1,1.319163847E1
3.740539750E0,4.970065477E0,-4.997519909E0,-9.889915066E0,1.214442984E1
3.750461750E0,4.635996505E0,-4.308900045E0,-9.003045064E0,1.100517622E1
3.760383750E0,4.143919686E0,-3.602518972E0,-8.050924813E0,9.745132305E0
3.770305750E0,3.512483546E0,-2.868375904E0,-7.005654908E0,8.345317350E0
3.780227750E0,2.583060139E0,-1.955825223E0,-5.542663425E0,6.420168988E0
3.790149750E0,1.503456846E0,-8.584200820E-1,-3.724771680E0,4.107455611E0
3.800071750E0,6.344287455E-1,2.917924333E-1,-2.144109660E0,2.254960952E0
3.809992750E0,-3.611424574E-1,1.185649273E0,-7.076838326E-1,1.427236659E0
3.819914750E0,-1.553770383E0,1.812586566E0,8.830728203E-1,2.545484250E0
3.829836750E0,-2.582611073E0,2.280992394E0,2.454544187E0,4.230554742E0
3.839758750E0,-3.347998738E0,2.703379465E0,3.703022377E0,5.677123463E0
3.849680750E0,-3.728428529E0,3.006109115E0,4.368778750E0,6.482599716E0
3.859602750E0,-3.982763991E0,2.852560063E0,4.729394081E0,6.809308063E0
3.869524750E0,-4.171388151E0,2.677959865E0,4.959878458E0,7.012299371E0
3.879446750E0,-4.358442627E0,3.167014842E0,5.731627309E0,7.866228877E0
3.889368750E0,-4.782324539E0,3.966628307E0,7.556126992E0,9.782628647E0
3.899290750E0,-4.888374612E0,4.611625895E0,9.622345308E0,1.173681511E1
3.909212750E0,-4.923797629E0,4.841401590E0,1.184363938E1,1.370965887E1
3.919133750E0,-5.399065749E0,4.815551049E0,1.501068083E1,1.666313242E1
3.929055750E0,-6.632692012E0,4.253707885E0,1.820087374E1,1.983326597E1
3.938977750E0,-7.728507003E0,4.055472656E0,2.072285738E1,2.248585104E1
3.948899750E0,-8.390182019E0,5.085283692E0,2.254168760E1,2.458420111E1
3.958821750E0,-8.842194593E0,5.639241886E0,2.441303284E1,2.657031476E1
3.968743750E0,-8.166724826E0,5.379325549E0,2.520366995E1,2.703437657E1
3.978665750E0,-5.857493888E0,4.218707036E0,2.290843666E1,2.401882999E1
3.988587750E0,-2.338972800E0,2.231333161E0,1.766302112E1,1.795639041E1
3.998509750E0,9.930225478E-1,2.694467139E-1,1.166807907E1,1.171335838E1
4.008431750E0,3.452031522E0,-9.632773232E-1,6.441825444E0,7.371671444E0
4.018352750E0,4.949872702E0,-1.679523818E0,1.867840415E0,5.550753809E0
4.028274750E0,5.371922974E0,-2.061287359E0,-1.823505657E0,6.035862399E0
4.038196750E0,4.520456108E0,-2.146671326E0,-3.871475982E0,6.327009364E0
4.048118750E0,2.681072045E0,-1.862648088E0,-4.387339566E0,5.468670193E0
4.058040750E0,9.175560437E-1,-1.371346025E0,-5.145462066E0,5.403543179E0
4.067962750E0,-1.094294715E-1,-8.294491750E-1,-6.772896549E0,6.824374579E0
4.077884750E0,-5.415639974E-1,-4.827394000E-1,-8.929341495E0,8.958764894E0
4.087806750E0,-5.979289636E-1,-3.717127615E-1,-1.099848634E1,1.102099774E1
4.097728750E0,-3.936953688E-1,-1.536990336E-1,-1.254446677E1,1.255158420E1
4.107650750E0,-1.787876818E-1,5.974977314E-3,-1.359822625E1,1.359940285E1
4.117572750E0,1.488867751E-1,-1.514899555E-1,-1.425814769E1,1.425972973E1
4.127493750E0,7.202597317E-1,-6.221987092E-1,-1.441159383E1,1.444298937E1
4.137415750E0,1.269226743E0,-1.293241550E0,-1.385540784E1,1.397339389E1
4.147337750E0,1.774269177E0,-2.183320211E0,-1.291376756E1,1.321666792E1
4.157259750E0,2.419756616E0,-2.866655946E0,-1.218868709E1,1.275292246E1
4.167181750E0,2.910070937E0,-3.126837454E0,-1.186948525E1,1.261468610E1
4.177103750E0,3.047445129E0,-3.327912383E0,-1.145882944E1,1.231530328E1
4.187025750E0,2.995744633E0,-3.377018470E0,-1.107715127E1,1.196168968E1
4.196947750E0,2.796541398E0,-3.022015296E0,-1.111325081E1,1.185147940E1
4.206869750E0,2.491079929E0,-2.392057624E0,-1.113143215E1,1.165487883E1
4.216791750E0,1.989881892E0,-1.725816517E0,-1.063588997E1,1.095719983E1
4.226712750E0,1.392263562E0,-1.161423382E0,-9.764350787E0,9.931256134E0
4.236634750E0,1.191392116E0,-6.556602779E-1,-9.140168118E0,9.240778041E0
4.246556750E0,9.230025789E-1,-2.683465603E-1,-8.462692171E0,8.517106458E0
4.256478750E0,7.171360760E-1,-1.223775458E-1,-7.253558725E0,7.289950246E0
4.266400750E0,7.789196569E-1,7.470841259E-2,-5.962034503E0,6.013164939E0
4.276322750E0,9.165982698E-1,1.175538853E-1,-4.553102283E0,4.645934965E0
4.286244750E0,9.441539314E-1,1.936597824E-1,-2.921691694E0,3.076558647E0
4.296166750E0,5.478130630E-1,1.128860530E-1,-1.229599285E0,1.350835599E0
4.306088750E0,4.378988573E-1,-5.494716257E-2,1.655908084E-1,4.713755570E-1
4.316010750E0,3.801538020E-1,4.509138823E-1,1.114022636E0,1.260510482E0
4.325931750E0,-3.985137668E-1,1.287327091E0,2.424337471E0,2.773704460E0
4.335853750E0,-9.013311897E-1,1.713223954E0,3.515005158E0,4.012828863E0
4.345775750E0,-1.276367947E0,1.716544295E0,4.384112488E0,4.878122770E0
4.355697750E0,-1.685699209E0,1.571057091E0,5.615935469E0,6.070299284E0
4.365619750E0,-3.654101939E-1,2.080988090E0,7.970137927E0,8.245431136E0
4.375541750E0,1.468330868E-1,2.565765537E0,9.044503577E0,9.402539960E0
4.385463750E0,8.918385275E-1,3.239833142E0,9.302590320E0,9.890909029E0
4.395385750E0,7.901836601E-1,2.884602220E0,1.033223822E1,1.075641515E1
4.405307750E0,4.241562925E-2,2.475639479E0,1.108741781E1,1.136052040E1
4.415228750E0,-1.862799823E0,1.598900363E0,1.081640756E1,1.109149124E1
4.425150750E0,-5.421889186E0,6.197596894E-1,1.557963596E1,1.650775700E1
4.435072750E0,-7.154441403E0,-4.741286440E-1,2.471296693E1,2.573211154E1
4.444994750E0,-6.826500313E0,-1.671536814E0,3.441622718E1,3.512651186E1
4.454916750E0,-6.944155648E0,-3.507650530E0,3.934410383E1,4.010590251E1
4.464838750E0,-5.692299521E0,-6.030673213E0,3.374443590E1,3.474849993E1
4.474760750E0,-2.902042125E0,-5.927511957E0,2.187294622E1,2.284694778E1
4.484682750E0,-6.450594952E-1,-4.328506637E0,1.002557398E1,1.093911354E1
4.494604750E0,1.848263353E0,-2.679829512E0,1.932949746E0,3.786008235E0
4.504526750E0,3.964978808E0,-1.141355299E0,-2.730331621E0,4.947571083E0
4.514447750E0,3.466551328E0,6.045207125E-1,-3.830334973E0,5.201335348E0
4.524369750E0,6.749477573E-1,1.873375536E0,-3.362786931E0,3.908123120E0
4.534291750E0,-2.514015340E0,1.939217523E0,-3.133588357E0,4.460965559E0
4.544213750E0,-4.668289215E0,2.470173794E0,-2.705675082E0,5.934253148E0
4.554135750E0,-5.083551162E0,3.883746949E0,-2.709102135E0,6.947317263E0
4.564057750E0,-5.077603374E0,4.330189758E0,-4.800901435E0,8.220781833E0
4.573979750E0,-2.972727946E0,5.744791145E0,-7.751119355E0,1.009552317E1
4.583901750E0,-1.965713011E0,5.690717849E0,-1.079686499E1,1.236206257E1
4.593824000E0,-1.376638486E0,5.307341062E0,-1.294487474E1,1.405819280E1
4.603745000E0,-1.109636639E0,5.673853894E0,-1.414733125E1,1.528302631E1
4.613667000E0,-2.656515786E-1,5.487217788E0,-1.499824848E1,1.597271384E1
4.623589000E0,1.246521420E0,4.996893087E0,-1.537880983E1,1.621821655E1
4.633511000E0,2.150990664E0,4.193918058E0,-1.496636946E1,1.569101413E1
4.643433000E0,2.924993909E0,3.152409959E0,-1.420220387E1,1.483899837E1
4.653355000E0,3.477051466E0,2.341611794E0,-1.355363304E1,1.418710687E1
4.663277000E0,3.700300498E0,1.658802163E0,-1.297776884E1,1.359655590E1
4.673199000E0,4.646622942E0,4.338364677E-1,-1.055562642E1,1.154125504E1
4.683121000E0,3.653032191E0,1.045289931E0,-1.227092233E1,1.284573120E1
4.693043000E0,2.722169785E0,1.891135430E0,-1.324874051E1,1.365707606E1
4.702964000E0,2.930130980E0,1.907692844E0,-1.306575774E1,1.352549389E1
4.712886000E0,1.799118382E0,1.812953771E0,-1.390473262E1,1.413736954E1
4.722808000E0,6.152028081E-1,2.606222422E0,-1.438401953E1,1.463116153E1
4.732730000E0,-5.320315741E-1,3.514674205E0,-1.511700192E1,1.552931871E1
4.742652000E0,-1.630831276E0,4.257183470E0,-1.535738447E1,1.601975279E1
4.752574000E0,-2.288595821E0,4.912555187E0,-1.461286551E1,1.558546463E1
4.762496000E0,-2.201083322E0,4.927510611E0,-1.323798280E1,1.429577970E1
4.772418000E0,-1.937260314E0,3.886586941E0,-1.119217536E1,1.200513744E1
4.782340000E0,-1.467764126E0,2.153284380E0,-8.278603111E0,8.679068765E0
4.792261000E0,-3.698648952E-1,7.245867444E-1,-4.123773982E0,4.203253245E0
4.802183000E0,1.154902421E0,-1.270656972E0,5.430279940E-1,1.800902036E0
4.812105000E0,2.751416096E0,-2.799052485E0,5.032404982E0,6.382012633E0
4.822027000E0,3.289373092E0,-3.360158023E0,9.456151067E0,1.056074951E1
4.831949000E0,3.069238287E0,-3.056338452E0,1.404076458E1,1.469368907E1
4.841871000E0,2.184241586E0,-2.646577858E0,1.852848388E1,1.884356656E1
4.851793000E0,1.445961467E0,-3.625290077E0,2.220697660E1,2.254735777E1
4.861715000E0,1.452806949E0,-4.790161562E0,2.302346776E1,2.356133196E1
4.871637000E0,1.089758737E0,-5.301719549E0,2.196633795E1,2.262334651E1
4.881558000E0,-1.359873788E-1,-5.310393893E0,2.098155925E1,2.164358113E1
4.891480000E0,-2.177308689E0,-5.685428458E0,2.074178832E1,2.161681181E1
4.901402000E0,-3.134463100E0,-6.603356531E0,2.290374953E1,2.404185765E1
4.911324000E0,-2.454995592E0,-8.117718726E0,2.708281771E1,2.837962959E1
4.921246000E0,-1.864105360E0,-9.565649536E0,3.126848155E1,3.275201487E1
4.931168000E0,-1.224753405E0,-1.121132616E1,3.355505862E1,3.539965839E1
4.941090000E0,6.973563342E-1,-1.235925622E1,3.174804912E1,3.407603473E1
4.951012000E0,3.004814834E0,-1.176525512E1,2.489987435E1,2.770295802E1
4.960934000E0,4.312429717E0,-9.718863543E0,1.598286346E1,1.919649143E1
4.970855000E0,4.718126496E0,-7.018764950E0,7.199262650E0,1.110644686E1
4.980777000E0,4.063243021E0,-4.049350621E0,3.971224219E-1,5.750207867E0
4.990699000E0,2.097995740E0,-1.245586450E0,-3.167948350E0,3.998620822E0
5.000621000E0,-1.431772614E-1,5.433808735E-1,-4.198899009E0,4.236332776E0
5.010543000E0,-1.833578363E0,1.165946569E0,-4.538406476E0,5.031756587E0
5.020465000E0,-3.305379260E0,1.624417612E0,-5.121593732E0,6.308326798E0
5.030387000E0,-4.546392311E0,2.331435154E0,-6.191838849E0,8.027710835E0
5.040309000E0,-5.311726474E0,3.081479433E0,-7.859019780E0,9.973672619E0
5.050231000E0,-5.548662084E0,3.776715128E0,-9.949238577E0,1.200160724E1
5.060152000E0,-5.428390705E0,4.434136880E0,-1.226108380E1,1.412314312E1
5.070074000E0,-5.001600680E0,4.741636981E0,-1.436212054E1,1.593014868E1
5.079996000E0,-4.389533442E0,4.506996110E0,-1.594869467E1,1.714473329E1
5.089918000E0,-3.651783811E0,4.050417446E0,-1.698558844E1,1.783960821E1
5.099840000E0,-3.185584137E0,3.701633078E0,-1.710840219E1,1.779178067E1
5.109762000E0,-2.898072743E0,3.097167220E0,-1.636967900E1,1.691028270E1
5.119684000E0,-1.941340793E0,1.970803451E0,-1.560066489E1,1.584404037E1
5.129606000E0,-1.363880739E0,1.811613297E0,-1.484422347E1,1.501642713E1
5.139528000E0,-1.053945784E0,1.516944619E0,-1.405108608E1,1.417197738E1
5.149449000E0,-8.230630653E-1,1.111916469E0,-1.316943589E1,1.324189687E1
5.159371000E0,-6.899397258E-1,1.155646918E0,-1.239961487E1,1.247244906E1
5.169293000E0,-4.072897797E-1,1.020601233E0,-1.203533099E1,1.208539217E1
5.179215000E0,-5.066760371E-2,8.150976227E-1,-1.175942545E1,1.178774949E1
5.189137000E0,3.666740696E-1,6.683539984E-1,-1.126137950E1,1.128715266E1
5.199059000E0,7.693142165E-1,3.452858318E-1,-1.059115761E1,1.062467346E1
5.208981000E0,1.178800795E0,6.987261906E-2,-9.946572247E0,1.001642416E1
5.218903000E0,1.447761240E0,-6.028230831E-2,-9.185147240E0,9.298740580E0
5.228824000E0,1.609892689E0,-3.694628260E-1,-7.909892310E0,8.080510727E0
5.238746000E0,1.690696971E0,-6.168641482E-1,-6.360676031E0,6.610384043E0
5.248668000E0,1.393810004E0,-5.896937451E-1,-4.778567410E0,5.012499530E0
5.258590000E0,8.687819329E-1,-4.520664416E-1,-3.646763391E0,3.775980581E0
5.268512000E0,3.973157454E-1,-1.276713225E-1,-3.217809312E0,3.244758317E0
5.278434000E0,8.365348309E-2,7.866113037E-2,-2.859627008E0,2.861931534E0
5.288356000E0,-1.069689631E-2,2.270254567E-2,-2.027600965E0,2.027756273E0
5.298278000E0,-1.324423125E-1,5.486588627E-2,-9.149155873E-1,9.260787026E-1
5.308200000E0,-3.649797658E-1,7.106577265E-1,7.648982531E-1,1.106035249E0
5.318121000E0,-3.857395741E-1,1.616685838E0,2.958791108E0,3.393657752E0
5.328043000E0,2.287369002E-1,1.557208399E0,6.163164103E0,6.360959859E0
5.337965000E0,1.510827262E0,1.378710593E0,1.015892090E1,1.036277549E1
5.347887000E0,2.623619351E0,1.915163539E0,1.291413242E1,1.331638262E1
5.357809000E0,3.363792360E0,3.505424495E0,1.332673301E1,1.418467175E1
5.367731000E0,3.506989210E0,4.818265619E0,1.302529267E1,1.432385793E1
5.377653000E0,2.637568176E0,4.318509652E0,1.472113022E1,1.556656566E1
5.387575000E0,1.249572058E0,3.556864790E0,1.687854464E1,1.729444959E1
5.397496000E0,-3.937539140E-1,2.080540194E0,1.904125663E1,1.915863105E1
5.407418000E0,-1.862136749E0,-5.687841019E-1,2.477357449E1,2.484997106E1
5.417340000E0,-2.902526275E0,-3.987316341E0,3.239517919E1,3.276844496E1
5.427262000E0,-2.871264721E0,-7.253704906E0,3.611773653E1,3.695066018E1
5.437184000E0,-1.299273684E0,-8.116418306E0,3.196721680E1,3.300707967E1
5.447106000E0,4.589092188E-1,-7.343256183E0,2.223625946E1,2.342189667E1
5.457028000E0,2.043011448E0,-6.702094368E0,1.206252055E1,1.394978016E1
5.466950000E0,3.648053580E0,-4.977497288E0,4.221599069E0,7.477009621E0
5.476871000E0,3.096470817E0,-3.302684864E0,-9.432862777E-1,4.624461896E0
5.486793000E0,1.018414959E0,-1.837886007E0,-3.502871600E0,4.084740316E0
5.496715000E0,-1.164058722E0,-5.676142202E-1,-4.792601312E0,4.964498560E0
5.506637000E0,-2.691388580E0,7.177968845E-2,-5.798283813E0,6.392872593E0
5.516559000E0,-3.854268503E0,4.759753409E-1,-6.742353618E0,7.780827111E0
5.526481000E0,-4.628258300E0,8.015737438E-1,-7.913916364E0,9.202899954E0
5.536403000E0,-4.873744586E0,1.541931233E0,-9.542112154E0,1.082510243E1
5.546325000E0,-4.833032470E0,2.353278159E0,-1.118890443E1,1.241320681E1
5.556247000E0,-4.396116237E0,2.966976040E0,-1.277164513E1,1.382908906E1
5.566168000E0,-3.860268039E0,3.013208220E0,-1.409549218E1,1.492192993E1
5.576090000E0,-3.172538999E0,2.580811300E0,-1.506053536E1,1.560593849E1
5.586012000E0,-2.387507906E0,2.033286505E0,-1.582540379E1,1.613312906E1
5.595933042E0,-1.740653681E0,1.230145415E0,-1.606857195E1,1.620932255E1
5.605855042E0,-1.221276651E0,1.557193927E-1,-1.588096170E1,1.592861292E1
5.615777042E0,-6.400059660E-1,-6.941111295E-1,-1.557168024E1,1.560027639E1
5.625699042E0,-3.931396640E-1,-8.702553581E-1,-1.516929825E1,1.519932606E1
5.635620042E0,-5.021078998E-1,-6.272069225E-1,-1.436684859E1,1.438929600E1
5.645542042E0,-9.504035085E-1,-2.246466632E-1,-1.315392791E1,1.319013087E1
5.655464042E0,-1.295274334E0,2.373370215E-1,-1.201086858E1,1.208284025E1
5.665386042E0,-1.367424882E0,7.813504907E-1,-1.131039554E1,1.141951867E1
5.675308042E0,-1.296311630E0,1.013265608E0,-1.069967842E1,1.082544453E1
5.685230042E0,-9.109470820E-1,8.195727892E-1,-9.853451829E0,9.929352300E0
5.695152042E0,-2.235954800E-1,2.504496219E-1,-8.842295750E0,8.848667362E0
5.705074042E0,8.708526512E-1,-6.789755387E-1,-7.533226957E0,7.613731050E0
5.714995042E0,2.233368577E0,-1.328323089E0,-6.409863979E0,6.916555042E0
5.724917042E0,3.616396462E0,-1.636102103E0,-5.746344166E0,6.983954806E0
5.734839042E0,4.574867666E0,-1.534462438E0,-5.393694497E0,7.237121628E0
5.744761042E0,4.867560278E0,-1.219542220E0,-4.861869768E0,6.987002500E0
5.754683042E0,4.825512658E0,-7.854057540E-1,-3.931454381E0,6.273656682E0
5.764605042E0,4.298439377E0,-2.654339891E-1,-2.737786236E0,5.103186235E0
5.774527042E0,3.193852393E0,9.012335412E-2,-1.306748618E0,3.452014959E0
5.784449042E0,1.857566857E0,5.830960028E-1,-2.388324469E-1,1.961529127E0
5.794370042E0,4.454221042E-1,1.890320328E0,4.713341135E-1,1.998466322E0
5.804292042E0,-5.791961292E-1,3.286992983E0,1.620504363E0,3.710232529E0
5.814214042E0,-9.954820329E-1,4.051549467E0,3.702837605E0,5.578265312E0
5.824136042E0,-5.638406831E-1,4.640981841E0,6.416202945E0,7.938783849E0
5.834058042E0,-1.772576116E-2,5.108715239E0,8.947738590E0,1.030346114E1
5.843980042E0,2.438216202E-1,6.256875674E0,1.055390850E1,1.227163098E1
5.853902042E0,7.995171319E-1,8.014221840E0,1.173687390E1,1.423450696E1
5.863824042E0,1.288846344E0,8.516101223E0,1.277853783E1,1.541026067E1
5.873745042E0,8.342989288E-1,7.265870038E0,1.545798113E1,1.710082170E1
5.883667042E0,-9.239879809E-1,4.435402510E0,2.334451733E1,2.378009753E1
5.893589042E0,-3.151993345E0,-1.069473431E0,3.586651208E1,3.602062637E1
5.903511042E0,-5.724289638E0,-7.351101977E0,4.830333863E1,4.919368572E1
5.913433042E0,-6.782090710E0,-1.223540868E1,5.291200174E1,5.473008229E1
5.923355042E0,-4.534696125E0,-1.403584356E1,4.600101851E1,4.830799186E1
5.933277042E0,-1.840447379E0,-1.270771519E1,3.231684521E1,3.477429735E1
5.943199042E0,3.062541690E-1,-9.405344610E0,1.799991196E1,2.031135469E1
5.953120042E0,1.375911677E0,-5.991845362E0,6.841034153E0,9.197559027E0
5.963042042E0,1.124470295E0,-3.689224994E0,-1.294297557E0,4.068171662E0
5.972964042E0,6.845253503E-1,-1.725770909E0,-7.121432117E0,7.359460278E0
5.982886042E0,2.818175219E-1,-5.386354195E-1,-1.051485144E1,1.053240951E1
5.992808042E0,-6.748578563E-2,-1.000994788E0,-1.197802009E1,1.201996299E1
6.002730042E0,-5.022172062E-1,-1.811569443E0,-1.191499062E1,1.206237984E1
6.012652042E0,-1.182243270E0,-1.833692091E0,-1.082266992E1,1.104039447E1
6.022573042E0,-1.895439712E0,-1.795760034E0,-1.058515135E1,1.090242518E1
6.032495042E0,-1.892113962E0,-1.284440321E0,-1.170950777E1,1.193073570E1
6.042417042E0,-1.569468110E0,-8.577707487E-1,-1.287905381E1,1.300265464E1
6.052339042E0,-9.841632852E-1,-7.043544281E-1,-1.360173224E1,1.365546823E1
6.062261042E0,-6.641121358E-2,-1.023141994E0,-1.400783072E1,1.404530354E1
6.072183042E0,8.338582680E-1,-1.578500012E0,-1.419536379E1,1.430717775E1
6.082105042E0,1.784952040E0,-2.305316226E0,-1.426957314E1,1.456438308E1
6.092027042E0,2.644640676E0,-3.253169180E0,-1.393953641E1,1.455637006E1
6.101948042E0,3.308558976E0,-4.076320611E0,-1.326240194E1,1.426373925E1
6.111870042E0,3.474039565E0,-4.650095896E0,-1.258338467E1,1.385763012E1
6.121792042E0,3.540044104E0,-5.290626796E0,-1.260246647E1,1.411895199E1
6.131714042E0,3.907696559E0,-5.444914936E0,-1.331741489E1,1.490874677E1
6.141636042E0,4.184430073E0,-5.267909778E0,-1.377393859E1,1.532911324E1
6.151558042E0,4.206944193E0,-5.065293231E0,-1.361245369E1,1.512132503E1
6.161480042E0,4.170033059E0,-4.742393610E0,-1.261963741E1,1.411151024E1
6.171402042E0,4.155185809E0,-4.679579312E0,-1.118014764E1,1.281248348E1
6.181323042E0,4.170863948E0,-4.745556369E0,-9.528884583E0,1.143311212E1
6.191245042E0,4.081714375E0,-4.681068597E0,-8.180847021E0,1.027127321E1
6.201167042E0,4.014731596E0,-4.315111835E0,-7.613845443E0,9.628546223E0
6.211089042E0,4.009921969E0,-3.700534387E0,-7.494958684E0,9.270805500E0
6.221011042E0,3.924570454E0,-2.958586163E0,-7.222963754E0,8.736514793E0
6.230933042E0,3.840219106E0,-2.228851018E0,-6.753270369E0,8.082185368E0
6.240855042E0,3.200520265E0,-1.558807174E0,-5.473049984E0,6.528972806E0
6.250776042E0,2.065133365E0,-7.087538731E-1,-3.442242991E0,4.076290553E0
6.260698042E0,9.779538345E-1,3.843912792E-1,-1.373464179E0,1.729321893E0
6.270620042E0,-1.466464144E-1,1.688660678E0,1.134553964E0,2.039679571E0
6.280542042E0,-6.203243843E-1,3.079257199E0,3.272719345E0,4.536223005E0
6.290464042E0,-1.345124187E0,4.401309149E0,5.292561055E0,7.013706853E0
6.300386042E0,-2.011645668E0,4.778904794E0,8.077934856E0,9.598837474E0
6.310308042E0,-2.917576423E0,3.948725887E0,1.079933018E1,1.186297689E1
6.320229042E0,-4.541694073E0,3.100302497E0,1.388387209E1,1.493321013E1
6.330151042E0,-5.399469207E0,3.917123441E0,1.709238901E1,1.834796680E1
6.340073042E0,-6.353603239E0,5.041037226E0,1.799464830E1,1.973797603E1
6.349995042E0,-6.914137212E0,5.771950293E0,1.753573659E1,1.971351723E1
6.359917042E0,-6.406863188E0,8.538151073E0,1.635753550E1,1.953245728E1
6.369839042E0,-6.736108207E0,1.229694712E1,1.571102290E1,2.105768987E1
6.379761042E0,-8.487359819E0,1.487495877E1,1.535078764E1,2.299883380E1
6.389683042E0,-1.072621776E1,1.681441237E1,1.589865420E1,2.550575262E1
6.399604042E0,-1.254402004E1,1.770256935E1,1.758008188E1,2.792476820E1
6.409526042E0,-1.171063745E1,1.558749579E1,1.796900826E1,2.651403991E1
6.419448042E0,-9.791442107E0,1.111465882E1,1.764365280E1,2.303706716E1
6.429370042E0,-5.838454185E0,5.472136649E0,1.518576401E1,1.716505914E1
6.439292042E0,-3.099601708E-1,1.334532833E0,1.138828045E1,1.147039602E1
6.449214042E0,4.667744255E0,-1.211543083E0,7.940414776E0,9.290094719E0
6.459136042E0,6.959070725E0,-3.083843755E0,3.197956846E0,8.256251307E0
6.469057042E0,7.251586459E0,-4.413673087E0,-1.391221004E0,8.602413160E0
6.478979042E0,5.857785079E0,-5.450049376E0,-5.216033866E0,9.551109545E0
6.488901042E0,1.782154294E0,-6.101985855E0,-7.576045532E0,9.889730593E0
6.498823042E0,-4.818852972E0,-6.285943353E0,-6.188874895E0,1.005169639E1
6.508745042E0,-2.716722811E0,-3.868475776E0,-4.195919852E0,6.320714443E0
6.518667042E0,8.846047908E-1,-3.728015131E0,-3.648053872E0,5.290455510E0
6.528589042E0,1.572289976E0,-5.384447710E0,-3.424903073E0,6.572239646E0
6.538510042E0,1.638646519E0,-7.171656775E0,-2.738880250E0,7.849795433E0
6.548432042E0,2.432560702E0,-9.069805648E0,-1.157523874E0,9.461426298E0
6.558354042E0,3.323066211E0,-1.028981082E1,-3.242982745E-2,1.081314143E1
6.568276042E0,4.514365941E0,-9.582115295E0,-1.137978678E0,1.065323560E1
6.578198042E0,6.604756939E0,-9.979762212E0,-6.926777723E0,1.382746244E1
6.588120042E0,1.131331447E1,-1.166821824E1,-3.538541253E1,3.893925810E1
6.598042167E0,1.226141242E1,-1.173793459E1,-1.861173069E1,2.518963799E1
6.607963167E0,8.164176024E0,-1.127733070E1,-5.429247322E0,1.494351647E1
6.617885167E0,6.159924746E0,-1.096591852E1,1.011154325E0,1.261818033E1
6.627807167E0,4.523584954E0,-1.057768211E1,1.879631764E0,1.165689475E1
6.637729167E0,3.681678870E0,-1.097239373E1,2.832217015E0,1.191510120E1
6.647651167E0,3.480336431E0,-1.182800627E1,4.153045728E0,1.301008312E1
6.657573167E0,3.274827559E0,-1.097678849E1,2.103741068E0,1.164646331E1
6.667495167E0,2.443128667E0,-8.556733525E0,-4.262807322E-1,8.908887785E0
6.677416167E0,2.170789336E0,-6.096724530E0,-2.147208685E0,6.818568873E0
6.687338167E0,4.590875588E0,-5.276026298E0,-9.257780329E-1,7.054761310E0
6.697260167E0,3.883400794E0,-4.709135817E0,-1.123632535E0,6.206392829E0
6.707182167E0,3.124538037E0,-5.869567219E0,-1.604713518E0,6.840296979E0
6.717104167E0,2.694662436E0,-7.161704230E0,-9.548826219E-1,7.711226487E0
6.727026167E0,2.055726657E0,-7.184515972E0,-9.475355954E-1,7.532669218E0
6.736948167E0,1.840631274E0,-6.999128246E0,-1.756749311E0,7.447273852E0
6.746869167E0,1.953482536E0,-6.693728757E0,-2.134906143E0,7.292456577E0
6.756791167E0,1.527996733E0,-6.197229981E0,-2.463032005E0,6.841561234E0
6.766713167E0,6.015311408E-1,-5.572934461E0,-3.291338634E0,6.500180630E0
6.776635167E0,-9.348648253E-1,-4.718497210E0,-2.247563131E0,5.309399984E0
6.786557167E0,-2.357503796E0,-3.778167284E0,-1.535380597E0,4.710601421E0
6.796479167E0,-2.856344673E0,-1.349514568E0,-3.636370258E-1,3.179956973E0
6.806401167E0,-1.951914898E0,7.424513769E-1,1.717766509E0,2.704057617E0
6.816322167E0,-3.455645978E-1,2.930515142E0,3.753360472E0,4.774416061E0
6.826244167E0,3.094275187E0,5.700677412E0,4.271438981E0,7.766431153E0
6.836166167E0,4.364664064E0,9.363734069E0,3.449877115E0,1.089180702E1
6.846088167E0,2.219334382E0,1.568501565E1,3.534124968E0,1.623068700E1
6.856010167E0,-2.466156465E0,2.499092953E1,7.177672391E0,2.611795297E1
6.865932167E0,-1.085866304E1,3.507218888E1,8.751927617E0,3.774341311E1
6.875854167E0,-2.024529656E1,4.685065169E1,9.090267102E-1,5.104588060E1
6.885775167E0,-2.566730737E1,5.262033794E1,-3.927242632E0,5.867822311E1
6.895697167E0,-2.211352407E1,4.368176019E1,7.457685024E-3,4.896023055E1
6.905619167E0,-1.168570843E1,3.034451856E1,2.845914702E0,3.264115223E1
6.915541167E0,-4.020363050E0,1.959673042E1,2.098587625E0,2.011465218E1
6.925463167E0,-6.374809921E-1,1.161562721E1,1.554429656E0,1.173649986E1
6.935385167E0,8.665506354E-1,5.798175640E0,1.433216876E0,6.035218419E0
6.945306167E0,6.355134040E-1,4.120626426E-1,1.145814386E0,1.373522302E0
6.955228167E0,3.503498130E-1,-4.334697084E0,1.296258567E0,4.537910320E0
6.965150167E0,1.806748706E-1,-8.042302508E0,1.203986142E0,8.133932362E0
6.975072167E0,-1.818011905E-1,-1.086672986E1,9.344644372E-1,1.090834971E1
6.984994167E0,9.823702365E-2,-1.281345623E1,5.410365786E-1,1.282524977E1
6.994916167E0,1.361311618E0,-1.412975920E1,-2.752588463E-1,1.419785307E1
7.004838167E0,2.771550106E0,-1.505717321E1,-1.157124801E0,1.535379083E1
7.014759167E0,3.567512277E0,-1.545625153E1,-1.468696172E0,1.593047154E1
7.024681167E0,3.784684591E0,-1.558374656E1,-1.608032398E0,1.611715739E1
7.034603167E0,4.131582061E0,-1.572862887E1,-1.611019156E0,1.634182117E1
7.044525167E0,4.663156822E0,-1.543063955E1,-9.650560462E-1,1.614871517E1
7.054447167E0,4.843214226E0,-1.476792315E1,-2.757500124E-1,1.554426956E1
7.064369167E0,4.577840098E0,-1.376020582E1,-3.077151324E-1,1.450498441E1
7.074291167E0,4.274964268E0,-1.248932753E1,-6.141168340E-1,1.321498245E1
7.084212167E0,3.962120981E0,-1.099683041E1,-8.007563031E-1,1.171622347E1
7.094134167E0,3.601211827E0,-9.337368389E0,-1.126731559E0,1.007098302E1
7.104056167E0,2.985100947E0,-7.669784585E0,-1.521623268E0,8.369692982E0
7.113978167E0,2.477659692E0,-6.473596290E0,-1.740618597E0,7.146747483E0
7.123900167E0,2.153216114E0,-5.566637009E0,-1.904470882E0,6.265045616E0
7.133822167E0,1.690097046E0,-4.623337868E0,-1.863619456E0,5.263530996E0
7.143744167E0,1.718616548E0,-4.168494072E0,-1.801165200E0,4.855325092E0
7.153665167E0,2.499008753E0,-4.820526445E0,-1.751848760E0,5.705391663E0
7.163587167E0,3.408703362E0,-5.872569180E0,-1.399735134E0,6.932934864E0
7.173509167E0,3.893832226E0,-6.723439044E0,-9.659249425E-1,7.829404383E0
7.183431167E0,3.890219232E0,-7.474571198E0,-8.068913479E-1,8.464874122E0
7.193353167E0,3.603829918E0,-8.048547335E0,-9.706098779E-1,8.871797327E0
7.203275167E0,3.102564200E0,-8.410789946E0,-1.482178098E0,9.086481389E0
7.213196167E0,2.389049378E0,-8.668186718E0,-1.881872710E0,9.186210470E0
7.223118167E0,2.443359486E0,-9.469977978E0,-1.644646493E0,9.917426610E0
7.233040167E0,1.868203089E0,-9.557923610E0,-1.791971915E0,9.902285082E0
7.242962167E0,1.284607843E0,-9.397395321E0,-1.569496762E0,9.613770135E0
7.252884167E0,6.757507262E-1,-8.922303202E0,-1.522591567E0,9.076476108E0
7.262806167E0,1.342310214E-1,-8.155432683E0,-1.110540473E0,8.231792050E0
7.272728167E0,-8.041126049E-1,-7.119659241E0,-7.573313713E-1,7.204838346E0
7.282649167E0,-1.678882379E0,-4.980420311E0,-3.043136609E-1,5.264583490E0
7.292571167E0,-1.329243295E0,-1.412408974E0,-3.867097368E-1,1.977708590E0
7.302493167E0,-2.611465913E-1,1.522240734E0,-2.752324753E0,3.156058609E0
7.312415167E0,8.117074071E-1,5.872394933E0,-5.298460311E0,7.950947920E0
7.322337167E0,9.019910480E-1,1.105931493E1,-3.647866176E0,1.168028091E1
7.332259167E0,1.698213420E0,1.663846264E1,-1.293524555E0,1.677484944E1
7.342180167E0,3.087287180E0,2.233455116E1,-8.820649065E-2,2.254709067E1
7.352102167E0,-5.047787252E-1,2.974851889E1,6.940628607E0,3.055162030E1
7.362024167E0,-6.637449306E0,3.834735938E1,1.555835327E1,4.191226624E1
7.371946167E0,-1.146591042E1,4.436733453E1,1.053743105E1,4.702089884E1
7.381868167E0,-1.555096707E1,4.528506672E1,-4.597652804E0,4.810102136E1
7.391790167E0,-1.888114232E1,3.857074173E1,-9.948307700E0,4.408138472E1
7.401711167E0,-1.640854427E1,2.911952220E1,-5.195012541E0,3.382565674E1
7.411633167E0,-9.135572206E0,2.026839774E1,-3.258618200E0,2.246965107E1
7.421555167E0,-3.400766351E0,1.276496644E1,-2.149277430E0,1.338390726E1
7.431477167E0,1.685340921E0,7.118670477E0,-7.107594681E-1,7.349899482E0
7.441399167E0,3.340462847E0,2.259288699E0,6.082694721E-1,4.078365997E0
7.451321167E0,4.092790463E0,-1.506349171E0,1.463041184E0,4.600055555E0
7.461243167E0,4.252225031E0,-4.972335951E0,1.450591292E0,6.701474287E0
7.471164167E0,3.189056799E0,-7.668350848E0,1.708573955E0,8.478968861E0
7.481086167E0,1.987249914E0,-1.010071888E1,2.885460007E0,1.069109740E1
7.491008167E0,2.146584787E0,-1.157126672E1,4.309987335E0,1.253307746E1
7.500930167E0,3.316455641E0,-1.262805857E1,3.973705777E0,1.364760341E1
7.510852167E0,4.799635513E0,-1.404975994E1,2.047975588E0,1.498754347E1
7.520774167E0,5.509396276E0,-1.495836345E1,8.224015260E-1,1.596190555E1
7.530696167E0,4.941733378E0,-1.561314168E1,8.311933994E-1,1.639761581E1
7.540617167E0,4.210396389E0,-1.587462916E1,8.132366002E-1,1.644362012E1
7.550539167E0,3.288466482E0,-1.559022995E1,5.147193207E-1,1.594158768E1
7.560461167E0,2.957842689E0,-1.478436669E1,3.807010649E-1,1.508215054E1
7.570383167E0,3.213916236E0,-1.426138821E1,4.989315826E-2,1.461912927E1
7.580305167E0,3.439401536E0,-1.363586361E1,-9.153231382E-2,1.406323709E1
7.590227167E0,3.250045012E0,-1.266367045E1,-3.385881387E-2,1.307411520E1
7.600148542E0,2.909544396E0,-1.152346691E1,6.936040297E-3,1.188510775E1
7.610070542E0,2.383797263E0,-1.014155584E1,-2.011839795E-1,1.041989056E1
7.619992542E0,1.760681418E0,-8.541639522E0,-4.763095093E-1,8.734212931E0
7.629914542E0,1.004969433E0,-6.993511995E0,-6.313816153E-1,7.093505222E0
7.639836542E0,4.081450081E-1,-5.602486873E0,-7.009865780E-1,5.660903081E0
7.649758542E0,1.749780746E-1,-4.552294782E0,-6.407929281E-1,4.600502221E0
7.659679542E0,2.716405892E-1,-4.153072625E0,-6.182775664E-1,4.207620229E0
7.669601542E0,4.385142767E-1,-4.646893961E0,-9.033899944E-1,4.754159414E0
7.679523542E0,7.941830094E-1,-5.748316432E0,-1.303049815E0,5.947420220E0
7.689445542E0,1.581154355E0,-7.291110713E0,-1.450664383E0,7.600313920E0
7.699367542E0,2.253240047E0,-8.258191066E0,-1.287220087E0,8.656312491E0
7.709289542E0,2.411050258E0,-8.751391427E0,-8.981837797E-1,9.121773367E0
7.719211542E0,2.509694540E0,-8.827524514E0,-5.000704010E-1,9.190964374E0
7.729132542E0,2.380808458E0,-8.573898026E0,-1.931662774E-1,8.900409513E0
7.739054542E0,1.906965012E0,-7.952381687E0,-1.166998994E-1,8.178661805E0
7.748976542E0,9.980223557E-1,-6.790266287E0,-1.202559129E0,6.967776786E0
7.758898542E0,-6.901575346E-1,-5.083578059E0,-2.006109670E0,5.508498826E0
7.768820542E0,-2.437536098E0,-3.588715158E0,-2.938595994E0,5.239828731E0
7.778742542E0,-3.453695932E0,-2.048415298E0,-2.386897749E0,4.671327615E0
7.788663542E0,-3.488224325E0,-2.765393865E-1,-9.573051234E-1,3.627756342E0
7.798585542E0,-2.353770641E0,1.372237433E0,-7.901857066E-1,2.836840717E0
7.808507542E0,1.653289993E-1,4.178529648E0,2.201358287E-1,4.187589221E0
7.818429542E0,1.274218218E0,8.528731209E0,1.249964553E0,8.713512466E0
7.828351542E0,3.954600585E-1,1.417158901E1,3.201594983E0,1.453411622E1
7.838273542E0,-1.302025822E0,2.101098711E1,7.184083278E0,2.224337886E1
7.848194542E0,-3.162889339E0,2.677440983E1,1.275780244E1,2.982673991E1
7.858116542E0,-4.453129513E0,2.998644677E1,1.695611731E1,3.473510136E1
7.868038542E0,-7.168799241E0,3.262498880E1,1.412290860E1,3.626621188E1
7.877960542E0,-1.347699242E1,3.634478625E1,3.021935482E0,3.888064951E1
7.887882542E0,-1.833423119E1,3.837913549E1,-4.138370386E0,4.273439111E1
7.897804542E0,-1.963279371E1,3.084601320E1,-1.246957914E0,3.658521591E1
7.907725542E0,-1.407159578E1,2.387772024E1,1.780058506E0,2.777271935E1
7.917647542E0,-5.833912067E0,1.745881647E1,7.220100957E-1,1.842189190E1
7.927569542E0,-1.067641352E0,1.082814175E1,3.577414244E-1,1.088652794E1
7.937491542E0,1.106772965E0,4.973383772E0,1.616328281E0,5.345279193E0
7.947413542E0,2.556161778E0,-6.955058366E-1,2.086379954E0,3.372042811E0
7.957335542E0,3.031123796E0,-5.634127327E0,1.641440318E0,6.604954846E0
7.967256542E0,2.906108864E0,-9.020494909E0,1.922238232E0,9.670046378E0
7.977178542E0,3.115275462E0,-1.136858469E1,2.537426130E0,1.205770253E1
7.987100542E0,3.474271699E0,-1.327956937E1,2.632333456E0,1.397664859E1
7.997022542E0,3.737073053E0,-1.462208307E1,2.090931573E0,1.523624045E1
8.006944542E0,4.400524745E0,-1.534559063E1,1.032038240E0,1.599740207E1
8.016866542E0,5.304133864E0,-1.614216969E1,3.671361458E-1,1.699524249E1
8.026787542E0,5.761195509E0,-1.713223895E1,4.708165618E-1,1.808111317E1
8.036709542E0,5.564134986E0,-1.761519090E1,3.713413902E-1,1.847680824E1
8.046631542E0,4.771236756E0,-1.736714031E1,-3.424644772E-1,1.801387090E1
8.056553542E0,4.116236921E0,-1.658111081E1,-1.120448287E0,1.712109945E1
8.066475542E0,3.561734643E0,-1.566677234E1,-1.890337870E0,1.617736340E1
8.076397542E0,2.808730796E0,-1.458946964E1,-2.236933039E0,1.502482820E1
8.086318542E0,2.281450231E0,-1.320000046E1,-2.138836057E0,1.356538414E1
8.096240542E0,2.129804593E0,-1.139983572E1,-1.745218017E0,1.172766421E1
8.106162542E0,1.948326023E0,-9.329775195E0,-1.445528335E0,9.640032762E0
8.116084542E0,1.582065936E0,-7.462819464E0,-1.281888303E0,7.735621798E0
8.126006542E0,1.224603424E0,-5.740712128E0,-1.385370572E0,6.031142587E0
8.135928542E0,7.369316053E-1,-4.314815966E0,-1.436221175E0,4.606890087E0
8.145850542E0,2.393984574E-1,-3.408758326E0,-1.352467412E0,3.675066400E0
8.155771542E0,-1.163918974E-1,-3.294436489E0,-1.179982298E0,3.501316478E0
8.165693542E0,-2.600873682E-1,-3.807488147E0,-8.959314322E-1,3.920115376E0
8.175615542E0,6.396459237E-2,-5.230680556E0,-5.433582155E-1,5.259215598E0
8.185537542E0,1.063437204E0,-6.914659953E0,-1.394537544E-1,6.997347233E0
8.195459542E0,1.744980182E0,-7.949875571E0,1.438578773E-1,8.140403707E0
8.205381542E0,2.022476465E0,-8.779477943E0,3.877592023E-1,9.017760320E0
8.215302542E0,2.167394735E0,-9.214534761E0,5.029587793E-1,9.479357485E0
8.225224542E0,1.897535500E0,-9.196493762E0,3.205057704E-1,9.395683181E0
8.235146542E0,1.278058085E0,-8.862290888E0,7.661840558E-2,8.954300790E0
8.245068542E0,2.749802265E-1,-8.097260488E0,-5.656765991E-1,8.121652021E0
8.254990542E0,-9.328408116E-1,-6.402198279E0,-2.798462209E0,7.049093950E0
8.264912542E0,-1.683193092E0,-3.907288424E0,-4.851994990E0,6.453053324E0
8.274833542E0,-2.202853420E0,-6.379452610E-1,-4.041894836E0,4.647198211E0
8.284755542E0,-2.148006537E0,3.222600521E0,-1.266509249E0,4.074694084E0
8.294677542E0,7.422024317E-2,6.501295720E0,7.678153559E-1,6.546899656E0
8.304599542E0,4.774351568E0,8.897330913E0,-1.701149453E-1,1.009880534E1
8.314521542E0,9.013516257E0,1.177001592E1,-1.355559566E0,1.488671528E1
8.324443542E0,1.047031437E1,1.856676209E1,1.096813695E0,2.134373768E1
8.334364542E0,6.642088487E0,3.152470186E1,8.013186883E0,3.319842362E1
8.344286542E0,-3.411565281E0,4.379957924E1,1.591293427E1,4.672540419E1
8.354208542E0,-1.751399314E1,5.032019300E1,1.427147349E1,5.515919447E1
8.364130542E0,-2.869819757E1,5.091011157E1,-1.573217930E0,5.846281740E1
8.374052542E0,-2.869525525E1,4.137869163E1,-7.480063487E0,5.090741739E1
8.383973542E0,-1.775724432E1,2.872657060E1,-5.881283870E0,3.428009750E1
8.393895542E0,-8.254777461E0,1.627637030E1,-4.768841736E0,1.886275252E1
8.403817542E0,-2.240235108E0,6.161454962E0,-3.386611412E0,7.379113595E0
8.413739542E0,7.756140798E-1,-9.915772623E-1,-2.567091978E0,2.859154402E0
8.423661542E0,2.035024005E0,-4.820489607E0,-1.164457868E0,5.360448198E0
8.433583542E0,2.337075671E0,-6.682403870E0,8.519779122E-1,7.130379410E0
8.443504542E0,2.352784216E0,-8.246209536E0,2.654218415E0,8.976660887E0
8.453426542E0,2.632760888E0,-9.395732957E0,3.461228315E0,1.035332455E1
8.463348542E0,3.344408548E0,-1.035440384E1,3.449026930E0,1.141466313E1
8.473270542E0,3.847919889E0,-1.141304575E1,2.906186632E0,1.238991612E1
8.483192542E0,4.827624380E0,-1.252023123E1,2.471256698E0,1.364438555E1
8.493114542E0,5.650615305E0,-1.359332044E1,2.059165989E0,1.486431897E1
8.503035542E0,6.108289154E0,-1.495474052E1,1.298749042E0,1.620623983E1
8.512957542E0,5.711968385E0,-1.583824896E1,-7.473028117E-1,1.685334312E1
8.522879542E0,4.270052606E0,-1.537404786E1,-3.157060250E0,1.626535356E1
8.532801542E0,2.873362702E0,-1.518467292E1,-3.361044461E0,1.581540783E1
8.542723542E0,2.067343320E0,-1.511481857E1,-2.207776483E0,1.541447131E1
8.552645542E0,2.026719351E0,-1.450124217E1,-1.602836270E0,1.472965376E1
8.562566542E0,2.254715007E0,-1.361165263E1,-1.559260626E0,1.388496023E1
8.572488542E0,2.388010474E0,-1.270878055E1,-1.384021912E0,1.300504570E1
8.582410542E0,2.635947036E0,-1.134544375E1,-1.262708559E0,1.171587570E1
8.592332542E0,2.577312326E0,-9.529941759E0,-9.204283422E-1,9.915115586E0
8.602254250E0,1.932114764E0,-7.681673144E0,-4.371600616E-1,7.932986744E0
8.612176250E0,1.206534651E0,-6.050746704E0,-3.417299938E-1,6.179323663E0
8.622097250E0,4.757869144E-1,-4.778838136E0,-7.716340993E-1,4.864060680E0
8.632019250E0,-2.292681563E-1,-3.926046876E0,-1.410839581E0,4.178142684E0
8.641941250E0,-7.706391956E-1,-3.666308879E0,-1.998261537E0,4.246028113E0
8.651863250E0,-9.126119305E-1,-4.269846200E0,-2.243021014E0,4.908725942E0
8.661785250E0,-3.763788396E-1,-5.859272611E0,-2.373884186E0,6.333092664E0
8.671707250E0,2.685589604E-1,-7.533931546E0,-2.229747250E0,7.861553362E0
8.681628250E0,1.166220730E0,-9.036710408E0,-1.933119316E0,9.314459516E0
8.691550250E0,1.944280919E0,-9.833982940E0,-1.395343437E0,1.012098968E1
8.701472250E0,2.189069486E0,-1.013223772E1,-6.363483864E-1,1.038552866E1
8.711394250E0,1.970065386E0,-1.000451465E1,-1.138314016E-1,1.019727554E1
8.721316250E0,1.436771691E0,-9.629839684E0,5.224604130E-2,9.736573057E0
8.731238250E0,1.094652857E0,-9.031693497E0,-3.035190243E-1,9.102849889E0
8.741159250E0,1.166555922E0,-8.353913494E0,-1.220208803E0,8.522771434E0
8.751081250E0,1.465708684E0,-7.546300161E0,-2.091047640E0,7.966644733E0
8.761003250E0,2.530351583E0,-5.715940983E0,-1.812373728E0,6.508406793E0
8.770925250E0,3.800595449E0,-2.476392893E0,-7.808576435E-1,4.602910621E0
8.780847250E0,4.044640689E0,2.406935572E0,-2.621704388E-1,4.713935775E0
8.790768250E0,3.879318852E0,9.200015540E0,-1.555933999E0,1.010496568E1
8.800690250E0,3.091603887E0,1.691852907E1,-2.544624052E0,1.738590670E1
8.810612250E0,7.079042727E-1,2.572118362E1,-1.304728405E0,2.576398128E1
8.820534250E0,-4.785819419E0,3.614966701E1,3.499084944E0,3.663258232E1
8.830456250E0,-1.430922428E1,4.501333491E1,1.209334941E1,4.875657206E1
8.840378250E0,-2.534416685E1,4.916172860E1,1.144313786E1,5.648139300E1
8.850299250E0,-2.709383620E1,4.672905300E1,1.181514561E0,5.402847704E1
8.860221250E0,-1.963697330E1,3.712969075E1,-1.091188674E0,4.201684601E1
8.870143250E0,-1.336007968E1,2.599987127E1,3.436747777E-1,2.923359621E1
8.880065250E0,-6.687981529E0,1.749733910E1,1.382251229E0,1.878288026E1
8.889987250E0,-1.958024507E0,1.101084268E1,1.245882465E0,1.125276586E1
8.899909250E0,2.050326169E-1,5.461815144E0,-1.781852724E-1,5.468565903E0
8.909830250E0,6.647632232E-1,1.144299518E0,-2.000519586E0,2.398626720E0
8.919752250E0,9.567740500E-2,-1.874239608E0,-3.288303929E0,3.786141968E0
8.929674250E0,-3.029362030E-1,-4.693634264E0,-3.685337473E0,5.975256081E0
8.939596250E0,2.820356230E-1,-7.511951863E0,-2.664241712E0,7.975409004E0
8.949518250E0,1.141082380E0,-9.924004333E0,-6.622370799E-1,1.001131804E1
8.959439250E0,2.106131410E0,-1.156669069E1,1.137637932E0,1.181178831E1
8.969361250E0,3.691864428E0,-1.274558760E1,2.114128208E0,1.343686736E1
8.979283250E0,5.358398364E0,-1.352267321E1,1.985341383E0,1.468048719E1
8.989205250E0,6.543795623E0,-1.387261503E1,1.088058002E0,1.537707967E1
8.999127250E0,6.857094700E0,-1.424755487E1,9.042061195E-3,1.581178830E1
9.009049250E0,6.836662774E0,-1.446489120E1,-3.858367109E-1,1.600380908E1
9.018970250E0,6.296316313E0,-1.374468029E1,-9.790409781E-2,1.511851251E1
9.028892250E0,5.305779855E0,-1.365097281E1,-2.030058988E-1,1.464723762E1
9.038814250E0,4.511682069E0,-1.337971814E1,-6.675731027E-1,1.413569193E1
9.048736250E0,4.009126163E0,-1.278512530E1,-1.141201079E0,1.344748532E1
9.058658250E0,3.596766774E0,-1.216495090E1,-1.502637359E0,1.277421938E1
9.068580250E0,3.299507487E0,-1.124429627E1,-1.534989272E0,1.181850838E1
9.078501250E0,2.972249644E0,-1.009935064E1,-1.161503635E0,1.059151745E1
9.088423250E0,2.644463505E0,-8.685782744E0,-7.817440814E-1,9.113019966E0
9.098345250E0,2.233140243E0,-7.215054810E0,-6.449117799E-1,7.580227072E0
9.108267250E0,1.610835407E0,-6.185244359E0,-6.842240725E-1,6.428079112E0
9.118189250E0,1.012100843E0,-5.802952815E0,-7.669758419E-1,5.940274525E0
9.128110250E0,7.456496577E-1,-5.825968625E0,-7.010864923E-1,5.915186058E0
9.138032250E0,5.680745423E-1,-6.101967144E0,-5.605864517E-1,6.153939298E0
9.147954250E0,3.682813230E-1,-6.814889497E0,-5.597339277E-1,6.847747955E0
9.157876250E0,3.467694166E-1,-7.947633748E0,-6.863122594E-1,7.984745189E0
9.167798250E0,3.675181152E-1,-9.110122200E0,-7.066092606E-1,9.144872482E0
9.177720250E0,4.791076943E-2,-1.013252540E1,-6.857382090E-1,1.015581623E1
9.187641250E0,-2.118272276E-1,-1.091579970E1,-5.553912006E-1,1.093197206E1
9.197563250E0,-5.661085622E-1,-1.129998749E1,-3.609277184E-1,1.131991453E1
9.207485250E0,-9.213975182E-1,-1.130837006E1,-2.056278634E-1,1.134770856E1
9.217407250E0,-9.338361539E-1,-1.109683417E1,-2.863646092E-1,1.113973892E1
9.227329250E0,-5.422764806E-1,-1.065955833E1,-1.034929835E0,1.072340093E1
9.237251250E0,-4.200696735E-1,-9.509747230E0,-2.427142818E0,9.823582502E0
9.247172250E0,-1.470119531E0,-7.472924622E0,-3.094414936E0,8.220782057E0
9.257094250E0,-2.869840047E0,-4.565030018E0,-2.037461563E0,5.764263230E0
9.267016250E0,-2.906849414E0,-5.407621980E-2,-3.306343174E-1,2.926092412E0
9.276938250E0,-1.370224822E0,4.590317472E0,1.366537860E0,4.981561630E0
9.286860250E0,1.502491909E0,7.920085761E0,3.076361073E0,8.628397177E0
9.296781250E0,5.098390810E0,1.096373049E1,3.224793227E0,1.251384300E1
9.306703250E0,7.817194061E0,1.441678499E1,3.363224303E0,1.674107195E1
9.316625250E0,8.971092954E0,1.871371900E1,5.064971634E0,2.136206275E1
9.326547250E0,7.698823028E0,2.472430585E1,8.839199649E0,2.736228474E1
9.336469250E0,1.535395654E0,3.307490164E1,1.364047940E1,3.581018342E1
9.346390250E0,-1.035223920E1,4.286603150E1,1.102208337E1,4.545494291E1
9.356312250E0,-2.476876107E1,4.921150477E1,1.295120260E0,5.510844820E1
9.366234250E0,-2.812856650E1,4.541036553E1,-1.219094762E0,5.343036350E1
9.376156250E0,-1.915726889E1,3.371947998E1,1.935350613E0,3.882975488E1
9.386078250E0,-9.208681698E0,2.248663256E1,1.489538573E0,2.434475688E1
9.396000250E0,-2.002062520E0,1.445400368E1,6.772679324E-1,1.460770922E1
9.405921250E0,1.267768593E0,8.856862918E0,8.364007835E-1,8.986146239E0
9.415843250E0,1.796072567E0,4.830257381E0,1.472115478E0,5.359513692E0
9.425765250E0,1.482325740E0,1.517596875E0,1.711025254E0,2.725435249E0
9.435687250E0,1.193039569E0,-1.470823828E0,9.971186686E-1,2.140306470E0
9.445609250E0,9.291051717E-1,-4.406914290E0,8.431247891E-1,4.582028960E0
9.455530250E0,1.244428847E0,-7.118334262E0,8.741294309E-1,7.278968889E0
9.465452250E0,2.029710640E0,-9.683248737E0,6.364004266E-1,9.914133189E0
9.475374250E0,2.912048466E0,-1.223059759E1,8.044214109E-1,1.259819977E1
9.485296250E0,3.945898173E0,-1.450876870E1,1.154997000E0,1.508006962E1
9.495218250E0,5.103539869E0,-1.613795150E1,1.028692464E0,1.695693976E1
9.505140250E0,5.892447374E0,-1.705752791E1,6.840002704E-1,1.805956951E1
9.515061250E0,6.108268104E0,-1.722713458E1,3.100732414E-1,1.828062501E1
9.524983250E0,5.589837592E0,-1.667936859E1,1.261361361E-2,1.759112788E1
9.534905250E0,4.723690706E0,-1.582453841E1,-3.396846378E-1,1.651801003E1
9.544827250E0,4.099519731E0,-1.489920250E1,-7.055601239E-1,1.546900488E1
9.554749250E0,3.654315071E0,-1.388837678E1,-9.564618818E-1,1.439290963E1
9.564670250E0,3.203433933E0,-1.300677103E1,-1.001391887E0,1.343282797E1
9.574592250E0,3.012244599E0,-1.215279220E1,-7.834847975E-1,1.254503185E1
9.584514250E0,2.893517470E0,-1.075292901E1,-2.739664654E-1,1.113880529E1
9.594436250E0,2.316904238E0,-8.886118292E0,1.757730035E-1,9.184881039E0
9.604358750E0,1.235828909E0,-7.034759424E0,2.239577150E-1,7.145996802E0
9.614280750E0,1.775312613E-1,-5.377000696E0,4.368907973E-2,5.380108044E0
9.624201750E0,-6.471609114E-1,-4.298892828E0,-1.052509050E-1,4.348606046E0
9.634123750E0,-1.039079604E0,-3.937931927E0,-4.347124902E-1,4.095847804E0
9.644045750E0,-9.965621598E-1,-4.171708286E0,-7.062286068E-1,4.346843109E0
9.653967750E0,-7.896170649E-1,-5.001242246E0,-7.612106334E-1,5.120093822E0
9.663889750E0,-2.291262151E-1,-6.375700452E0,-6.827958901E-1,6.416250096E0
9.673810750E0,7.087570891E-1,-7.812175981E0,-4.589257371E-1,7.857674147E0
9.683732750E0,1.506679101E0,-8.826934530E0,-4.712519601E-2,8.954723663E0
9.693654750E0,1.913448405E0,-9.213803859E0,5.146964800E-1,9.424456420E0
9.703576750E0,1.559463524E0,-9.200001506E0,1.428587050E0,9.439958430E0
9.713498750E0,6.721158046E-1,-9.245902734E0,2.127945617E0,9.511393671E0
9.723420750E0,1.132580821E-1,-9.083403348E0,1.997283152E0,9.301085086E0
9.733341750E0,-1.788135557E-1,-8.543281420E0,4.729413669E-1,8.558230264E0
9.743263750E0,-9.492862518E-1,-7.696943733E0,-1.943878777E0,7.995170537E0
9.753185750E0,-1.617370840E0,-5.991438396E0,-3.728935483E0,7.240040215E0
9.763107750E0,-1.856027432E0,-3.838530430E0,-4.148053960E0,5.948571706E0
9.773029750E0,-1.267749736E0,-1.166344691E0,-3.964601662E0,4.322686164E0
9.782950750E0,-9.521880788E-1,2.440407958E0,-4.359168851E0,5.085725731E0
9.792872750E0,-1.747187652E0,6.371120912E0,-3.393477212E0,7.426946476E0
9.802794750E0,-1.452319145E0,1.056502406E1,-6.748797834E-1,1.068571135E1
9.812716750E0,2.755974585E0,1.542823635E1,3.284415384E-1,1.567589699E1
9.822638750E0,7.175153410E0,2.098087863E1,1.848159857E0,2.225074807E1
9.832559750E0,8.575822345E0,2.693921243E1,7.457749928E0,2.923839820E1
9.842481750E0,5.034349766E0,3.543465310E1,1.061612756E1,3.733177577E1
9.852403750E0,-7.517362876E0,4.627312922E1,6.003583063E0,4.726263050E1
9.862325750E0,-2.468911029E1,5.733607527E1,-5.099761398E0,6.263373900E1
9.872247750E0,-3.693206890E1,4.941602167E1,-7.730243041E0,6.217457332E1
9.882168750E0,-3.027192421E1,2.905248972E1,-7.133981996E0,4.255972572E1
9.892090750E0,-1.831491550E1,1.241302838E1,-6.009361281E0,2.292666191E1
9.902012750E0,-6.545860859E0,2.950842987E0,-3.749162171E0,8.100122574E0
9.911934750E0,1.744657123E0,-3.071806092E0,-2.148161781E-1,3.539204308E0
9.921856750E0,4.959197842E0,-6.904025037E0,3.237307438E0,9.096118095E0
9.931777750E0,5.006166186E0,-9.782585914E0,5.454070507E0,1.226815276E1
9.941699750E0,4.397328950E0,-1.179450757E1,6.256040107E0,1.405649133E1
9.951621750E0,4.300190910E0,-1.312155772E1,5.667106208E0,1.492591745E1
9.961543750E0,5.122619918E0,-1.340268951E1,3.757122570E0,1.483203597E1
9.971465750E0,5.686734726E0,-1.293451933E1,8.600985253E-1,1.415558234E1
9.981387750E0,5.758753712E0,-1.225934250E1,-1.524756206E0,1.363009921E1
9.991308750E0,4.917105491E0,-1.150352439E1,-1.706175427E0,1.262616468E1
1.000123075E1,3.655110584E0,-1.133027256E1,-4.155265331E-2,1.190531966E1
1.001115275E1,3.079847183E0,-1.161547050E1,1.703182822E0,1.213694547E1
1.002107475E1,3.238997868E0,-1.204480816E1,2.769246011E0,1.277643277E1
1.003099675E1,3.753447011E0,-1.246379157E1,2.567175009E0,1.326743578E1
1.004091775E1,4.334838002E0,-1.244612830E1,1.609888743E0,1.327737444E1
1.005083975E1,4.252405710E0,-1.183173095E1,5.364159626E-1,1.258413897E1
1.006076175E1,3.314785384E0,-1.099979846E1,-5.174821301E-1,1.150005026E1
1.007068375E1,1.903567926E0,-1.019615246E1,-1.351302062E0,1.045997673E1
1.008060575E1,6.945926477E-1,-9.524782176E0,-1.763723139E0,9.711573187E0
1.009052775E1,1.781946279E-1,-8.823764754E0,-1.966063113E0,9.041901455E0
1.010044875E1,-6.558485582E-2,-8.360503891E0,-2.072133359E0,8.613713679E0
1.011037075E1,-1.771152319E-1,-8.138595040E0,-1.947518084E0,8.370240482E0
1.012029275E1,-1.596403894E-1,-8.054509740E0,-1.773731964E0,8.249044629E0
1.013021475E1,5.341182992E-2,-8.114143154E0,-1.629364064E0,8.276291392E0
1.014013675E1,3.465622790E-1,-8.021263642E0,-1.445111282E0,8.157764549E0
1.015005775E1,8.602838820E-1,-7.701593438E0,-1.272358219E0,7.853249346E0
1.015997975E1,9.812965415E-1,-7.442935422E0,-1.022151841E0,7.576610389E0
1.016990175E1,6.644943975E-1,-7.478814522E0,-6.318385021E-1,7.534815150E0
1.017982375E1,4.945561843E-1,-7.585484108E0,-2.228772958E-1,7.604855637E0
1.018974575E1,5.106132232E-1,-7.774154461E0,6.050574504E-2,7.791140121E0
1.019966675E1,6.247678296E-1,-7.957882748E0,8.281404220E-2,7.982799686E0
1.020958875E1,7.224360654E-1,-8.259665149E0,-1.773016119E-1,8.293094603E0
1.021951075E1,9.242065206E-1,-8.224439183E0,-5.112325895E-1,8.291979036E0
1.022943275E1,1.165153613E0,-7.854194657E0,-7.756986451E-1,7.977948674E0
1.023935475E1,1.272869412E0,-7.119950432E0,-1.625748146E0,7.413295335E0
1.024927575E1,1.688593581E0,-5.425367694E0,-2.467463025E0,6.194702308E0
1.025919775E1,2.434395997E0,-2.127562040E0,-2.677968636E0,4.198132932E0
1.026911975E1,2.572217647E0,2.157227304E0,-1.891002406E0,3.853027818E0
1.027904175E1,2.635341849E0,7.686114689E0,-6.512285270E-2,8.125615463E0
1.028896375E1,4.268541101E0,1.488172049E1,-8.766485576E-1,1.550659732E1
1.029888475E1,6.137987747E0,2.424119019E1,-5.208088084E0,2.554279501E1
1.030880675E1,2.137454067E0,3.815726640E1,-3.569210016E0,3.838339418E1
1.031872875E1,-9.881148920E0,5.037119943E1,7.609329053E0,5.189216438E1
1.032865075E1,-1.839720220E1,5.556122078E1,1.470327750E1,6.034643878E1
1.033857275E1,-2.088145492E1,5.036922541E1,1.209676418E1,5.585181941E1
1.034849375E1,-1.794175789E1,3.774360864E1,3.965526692E0,4.197870974E1
1.035841575E1,-1.548253359E1,2.579829436E1,2.144412546E0,3.016387481E1
1.036833775E1,-1.196002236E1,1.486424433E1,-1.827403411E0,1.916578456E1
1.037825975E1,-7.082484398E0,5.991605626E0,-5.894668146E0,1.099127089E1
1.038818175E1,-2.775276244E0,-3.458043337E-1,-5.626855145E0,6.283568865E0
1.039810275E1,5.621791602E-1,-3.985829394E0,-3.147010056E0,5.109457276E0
1.040802475E1,3.047495708E0,-6.234311854E0,-1.576735615E0,7.116176612E0
1.041794675E1,4.023426406E0,-7.942091757E0,-1.193766963E0,8.982753536E0
1.042786875E1,3.223421470E0,-8.951985422E0,-5.497177935E-1,9.530513031E0
1.043779075E1,1.729543679E0,-9.510055379E0,2.085151016E0,9.888393671E0
1.044771175E1,1.574715694E0,-9.908967633E0,4.651946540E0,1.105929363E1
1.045763375E1,3.144523235E0,-1.014211717E1,4.378475772E0,1.148571361E1
1.046755575E1,4.908780225E0,-1.072453727E1,2.692252214E0,1.209793557E1
1.047747775E1,5.621303798E0,-1.167159793E1,1.168311183E0,1.300731354E1
1.048739975E1,5.547391484E0,-1.245750932E1,4.826454791E-1,1.364536688E1
1.049732075E1,5.376035905E0,-1.294785449E1,1.514027735E0,1.410109846E1
1.050724275E1,5.325496666E0,-1.359831980E1,1.910432850E0,1.472837296E1
1.051716475E1,5.359526292E0,-1.398226436E1,2.468055933E0,1.517628211E1
1.052708675E1,5.382364347E0,-1.415349890E1,2.701369193E0,1.538144247E1
1.053700875E1,5.204053506E0,-1.398189013E1,2.354163866E0,1.510355959E1
1.054693075E1,4.924305167E0,-1.356272546E1,1.423474245E0,1.449905453E1
1.055685175E1,4.584635147E0,-1.282555880E1,3.134902811E-1,1.362395369E1
1.056677375E1,4.086466407E0,-1.173502268E1,-3.614643466E-1,1.243143682E1
1.057669575E1,3.361840852E0,-1.046874965E1,-4.698939443E-1,1.100533932E1
1.058661775E1,2.694794291E0,-9.269592143E0,-1.789394170E-1,9.655012899E0
1.059654000E1,2.117640485E0,-8.144966751E0,1.459301305E-1,8.417017299E0
1.060646100E1,1.561646582E0,-7.084283001E0,6.368594331E-1,7.282265831E0
1.061638300E1,1.279667969E0,-6.233092124E0,9.477944809E-1,6.433296350E0
1.062630500E1,1.089902871E0,-5.656184778E0,6.745967782E-1,5.799603032E0
1.063622700E1,7.212005487E-1,-5.421053034E0,5.524765098E-1,5.496651392E0
1.064614900E1,3.040329945E-1,-5.643404519E0,6.184752023E-1,5.685328680E0
1.065607000E1,-4.442115113E-2,-6.161109391E0,5.323970982E-1,6.184229042E0
1.066599200E1,-1.720176293E-1,-7.131168900E0,2.149400660E-1,7.136480868E0
1.067591400E1,8.129310831E-2,-8.192140918E0,2.383067092E-1,8.196009485E0
1.068583600E1,5.687867332E-1,-9.077674831E0,2.098752809E-1,9.097897907E0
1.069575800E1,9.369071116E-1,-9.596791806E0,-8.780303277E-2,9.642816875E0
1.070567900E1,7.643316579E-1,-9.721114136E0,-2.612290370E-1,9.754614474E0
1.071560100E1,5.418000787E-2,-9.471048603E0,-7.327789128E-2,9.471487041E0
1.072552300E1,-7.160409656E-1,-7.947879916E0,2.305586368E-1,7.983399471E0
1.073544500E1,-1.888078213E0,-4.638134832E0,1.401355398E0,5.200089519E0
1.074536700E1,-2.717712745E0,-2.647619247E-3,2.615485874E0,3.771834558E0
1.075528800E1,-1.990294560E0,5.911785870E0,2.162700883E0,6.602102674E0
1.076521000E1,-1.645084888E-1,1.093295309E1,7.842484438E-1,1.096227950E1
1.077513200E1,2.305873758E0,1.385822386E1,-1.884444754E0,1.417457422E1
1.078505400E1,4.951016418E0,1.630842825E1,-4.514456865E0,1.763115754E1
1.079497600E1,5.496979129E0,2.137866939E1,-3.455101603E0,2.234282909E1
1.080489700E1,8.773302698E-1,3.036586324E1,3.815665478E0,3.061722818E1
1.081481900E1,-6.992513291E0,3.700339324E1,1.306548058E1,3.986042067E1
1.082474100E1,-1.260506381E1,3.966488208E1,1.588105408E1,4.454658666E1
1.083466300E1,-1.687031526E1,3.827279335E1,8.641101830E0,4.270928340E1
1.084458400E1,-1.829034082E1,3.250030043E1,-1.369964474E0,3.731866689E1
1.085450600E1,-1.373050547E1,2.513718243E1,-5.896940374E0,2.924343733E1
1.086442800E1,-4.986927677E0,1.835294462E1,-6.754093072E0,2.018211577E1
1.087435000E1,2.081677185E0,1.245661587E1,-4.617215248E0,1.344690802E1
1.088427200E1,5.445319564E0,7.928960080E0,-3.354475991E-1,9.624574702E0
1.089419300E1,6.950503970E0,4.132958788E0,2.736189362E0,8.536837002E0
1.090411500E1,6.935426340E0,3.729734212E-1,4.205625061E0,8.119515370E0
1.091403700E1,5.725662564E0,-2.844633577E0,3.593988762E0,7.334296640E0
1.092395900E1,4.041555698E0,-5.523901464E0,1.800484584E0,7.077386847E0
1.093388100E1,2.529309025E0,-7.331031409E0,4.326074195E-1,7.767147149E0
1.094380200E1,2.005640139E0,-8.758993392E0,-1.631290941E-1,8.987166890E0
1.095372400E1,2.547076374E0,-1.022821625E1,1.414406748E-1,1.054153742E1
1.096364600E1,3.606194825E0,-1.166546069E1,6.743441784E-1,1.222875113E1
1.097356800E1,4.390792932E0,-1.303320512E1,1.125169183E0,1.379889503E1
1.098349000E1,4.660460671E0,-1.439963627E1,1.733663188E0,1.523400822E1
1.099341100E1,4.769042588E0,-1.552459262E1,2.265377989E0,1.639782548E1
1.100333300E1,4.752592909E0,-1.622113984E1,2.158800205E0,1.704033261E1
1.101325500E1,4.471158233E0,-1.641513642E1,1.286005036E0,1.706170474E1
1.102317700E1,3.809145833E0,-1.602460323E1,1.661644020E-1,1.647194922E1
1.103309900E1,3.099498505E0,-1.544881621E1,-8.334013081E-1,1.577869991E1
1.104302000E1,2.594054367E0,-1.465828902E1,-1.375514213E0,1.494946804E1
1.105294200E1,1.941783866E0,-1.370161321E1,-1.310590239E0,1.390044517E1
1.106286400E1,1.370804427E0,-1.254297456E1,-9.584837028E-1,1.265401149E1
1.107278600E1,7.786571170E-1,-1.104617156E1,-7.498762444E-1,1.109894262E1
1.108270800E1,-1.448807745E-1,-9.307765106E0,-7.000988976E-1,9.335181850E0
1.109262900E1,-1.202612046E0,-7.502885170E0,-5.039697629E-1,7.615349442E0
1.110255100E1,-2.068765071E0,-5.680249579E0,-1.673999369E-1,6.047565373E0
1.111247300E1,-2.493170016E0,-4.059631780E0,-9.185975790E-2,4.764970633E0
1.112239500E1,-2.430597500E0,-3.187262873E0,-1.344464182E-1,4.010551666E0
1.113231700E1,-1.985673505E0,-3.522504212E0,-7.312235534E-2,4.044290057E0
1.114223800E1,-1.112152623E0,-4.750591992E0,1.333082577E-1,4.880858410E0
1.115216000E1,-1.645757318E-2,-6.186755279E0,3.786995995E-1,6.198356647E0
1.116208200E1,9.478413317E-1,-7.551668490E0,4.872004601E-1,7.626497523E0
1.117200400E1,1.495194146E0,-8.686203743E0,5.375550002E-1,8.830328781E0
1.118192600E1,1.628781681E0,-9.376204426E0,5.424625683E-1,9.532072432E0
1.119184700E1,1.529445673E0,-9.624211155E0,4.845073056E-1,9.757017564E0
1.120176900E1,1.057652700E0,-9.502458676E0,2.043965860E-1,9.563322022E0
1.121169100E1,1.503030438E-1,-8.875169966E0,-4.906878857E-1,8.889994799E0
1.122161300E1,-5.928025635E-1,-7.905181793E0,-2.006322216E0,8.177324923E0
1.123153500E1,-9.153088126E-1,-5.926342514E0,-3.524372397E0,6.955611160E0
1.124145600E1,-8.035976844E-1,-2.841301249E0,-3.890174208E0,4.883873196E0
1.125137800E1,4.211454881E-1,5.177136433E-1,-3.294735281E0,3.361647143E0
1.126130000E1,3.097601376E0,4.711735489E0,-1.615371677E0,5.865578510E0
1.127122200E1,6.216961995E0,8.801775715E0,5.149812394E-1,1.078828429E1
1.128114400E1,9.224713009E0,1.304408562E1,2.901774323E0,1.623772749E1
1.129106500E1,1.205730249E1,1.871064804E1,3.462462662E0,2.252677387E1
1.130098700E1,1.030968668E1,2.669214418E1,4.650310489E0,2.898940475E1
1.131090900E1,-3.223833991E0,3.684629258E1,1.144089603E1,3.871610111E1
1.132083100E1,-2.040515710E1,4.420724712E1,1.617832185E1,5.130681467E1
1.133075200E1,-3.213157735E1,4.598137655E1,4.144426348E0,5.624856907E1
1.134067400E1,-3.035412203E1,3.888201007E1,-8.479910467E0,5.005089722E1
1.135059600E1,-2.023892310E1,2.701897547E1,-9.907987640E0,3.518248517E1
1.136051800E1,-8.359112254E0,1.742184569E1,-9.825124408E0,2.167783510E1
1.137044000E1,5.061352792E-1,1.097736854E1,-6.670073261E0,1.285490841E1
1.138036100E1,5.467047817E0,6.840495039E0,-1.965713304E0,8.974687349E0
1.139028300E1,7.396866964E0,4.970474782E0,2.369078944E0,9.221268648E0
1.140020500E1,5.846488844E0,4.087111940E0,6.388414053E0,9.575894210E0
1.141012700E1,2.916028081E0,2.875647794E0,8.550232006E0,9.480455546E0
1.142004900E1,7.475869864E-1,1.330625138E0,7.748432559E0,7.897319589E0
1.142997000E1,9.197231680E-2,-7.156489098E-1,4.515307635E0,4.572593937E0
1.143989200E1,8.009384438E-1,-3.273970649E0,1.257384084E0,3.597415870E0
1.144981400E1,1.903074860E0,-5.992751096E0,-2.738970298E-1,6.293630050E0
1.145973600E1,2.862967522E0,-8.445130059E0,-6.545045757E-1,8.941206908E0
1.146965800E1,3.557487226E0,-1.059513137E1,-2.314251941E-1,1.117882292E1
1.147957900E1,3.935787168E0,-1.262354919E1,5.343168122E-1,1.323366576E1
1.148950100E1,4.201895999E0,-1.447959227E1,1.535420358E0,1.515493444E1
1.149942300E1,4.498070628E0,-1.617420658E1,2.417474009E0,1.696118446E1
1.150934500E1,4.961205776E0,-1.740780419E1,2.543934081E0,1.827886239E1
1.151926700E1,5.278468096E0,-1.774929094E1,1.751229393E0,1.860017093E1
1.152918800E1,5.213188026E0,-1.751734008E1,3.070524967E-1,1.827919074E1
1.153911000E1,4.317829036E0,-1.635387164E1,-9.362778050E-1,1.694017064E1
1.154903200E1,3.382101454E0,-1.521207648E1,-1.492315854E0,1.565480398E1
1.155895400E1,2.377961010E0,-1.441469636E1,-1.554684010E0,1.469201185E1
1.156887500E1,1.428778839E0,-1.374782141E1,-1.655238578E0,1.392062561E1
1.157879700E1,6.978394604E-1,-1.294864503E1,-1.854152083E0,1.309932319E1
1.158871900E1,-9.780316025E-2,-1.156886118E1,-1.688284117E0,1.169180986E1
1.159864004E1,-8.361879449E-1,-9.591189004E0,-1.255491925E0,9.709087329E0
1.160856204E1,-1.367113226E0,-7.190386577E0,-7.561116421E-1,7.358149394E0
1.161848304E1,-1.878026996E0,-4.748618556E0,-1.375065585E-1,5.108353124E0
1.162840504E1,-2.446200941E0,-2.906959634E0,4.749904505E-1,3.828828709E0
1.163832704E1,-2.630323768E0,-2.381534683E0,7.415702746E-1,3.624946488E0
1.164824904E1,-2.164063576E0,-2.419541584E0,7.782152867E-1,3.338108996E0
1.165817104E1,-1.348218533E0,-3.199095299E0,7.764272082E-1,3.557350580E0
1.166809204E1,-8.261180162E-1,-5.077367731E0,1.013351709E0,5.242996828E0
1.167801404E1,6.530813634E-2,-6.993150637E0,1.073051780E0,7.075299365E0
1.168793604E1,1.004278584E0,-8.546700872E0,7.582166398E-1,8.638840417E0
1.169785804E1,1.572059889E0,-9.767272056E0,5.091275918E-1,9.906068172E0
1.170778004E1,1.599346797E0,-1.034375957E1,4.539813316E-1,1.047651523E1
1.171770104E1,1.373101944E0,-1.046710893E1,9.694215775E-2,1.055723335E1
1.172762304E1,1.250651600E0,-1.010647956E1,-1.024799387E0,1.023500231E1
1.173754504E1,1.509813793E0,-8.801140707E0,-2.491402110E0,9.270744302E0
1.174746704E1,2.141507503E0,-6.484323007E0,-4.103640264E0,7.966954416E0
1.175738804E1,2.487766896E0,-3.435450865E0,-4.833668647E0,6.430836599E0
1.176731004E1,2.890218471E0,2.089104903E-1,-3.982240958E0,4.924961873E0
1.177723204E1,3.953901550E0,4.772613190E0,-2.027441336E0,6.520865932E0
1.178715404E1,5.065354042E0,9.942042993E0,6.373839283E-1,1.117623768E1
1.179707604E1,6.069126842E0,1.592822942E1,2.544650365E0,1.723421128E1
1.180699704E1,4.720058416E0,2.504232188E1,2.420226293E0,2.559793609E1
1.181691904E1,-3.386264379E0,3.557626331E1,6.202420555E0,3.627130158E1
1.182684104E1,-1.513605800E1,4.192065835E1,1.189581994E1,4.612973424E1
1.183676304E1,-2.660238240E1,4.679286249E1,5.468024887E0,5.410321641E1
1.184668504E1,-3.293856796E1,4.760891394E1,-6.588365439E0,5.826632394E1
1.185660604E1,-2.674247000E1,3.858507910E1,-7.339798139E0,4.751674092E1
1.186652804E1,-1.711666431E1,2.620096169E1,-6.853805641E0,3.203818413E1
1.187645004E1,-8.979772561E0,1.593068174E1,-5.899269905E0,1.921521068E1
1.188637204E1,-2.442719947E0,8.148176873E0,-2.327530383E0,8.819130613E0
1.189629304E1,2.639059508E0,1.888526110E0,1.219630367E0,3.466794512E0
1.190621504E1,5.544895892E0,-2.705921250E0,3.436686966E0,7.062485226E0
1.191613704E1,5.395753301E0,-5.593162318E0,4.280065963E0,8.872236644E0
1.192605904E1,4.050817395E0,-7.053562900E0,3.794868101E0,8.975683543E0
1.193598104E1,3.223163608E0,-7.756360214E0,2.225767196E0,8.689300722E0
1.194590204E1,3.174320354E0,-8.664807612E0,8.829003274E-1,9.270097823E0
1.195582404E1,3.843503487E0,-9.755676443E0,9.912854862E-1,1.053225469E1
1.196574604E1,4.732334938E0,-1.069660045E1,2.015850985E0,1.186911582E1
1.197566804E1,5.386111243E0,-1.139077838E1,2.844756954E0,1.291714630E1
1.198559004E1,5.187431041E0,-1.127240852E1,2.646875482E0,1.268789125E1
1.199551104E1,5.290912140E0,-1.133862589E1,2.321175045E0,1.272580222E1
1.200543304E1,5.126600702E0,-1.234198237E1,1.956797615E0,1.350687309E1
1.201535504E1,4.840801080E0,-1.359920741E1,1.511680663E0,1.451402686E1
1.202527704E1,5.050756468E0,-1.516092036E1,9.410918176E-1,1.600778876E1
1.203519804E1,4.393330624E0,-1.556362980E1,8.664018238E-1,1.619501709E1
1.204512004E1,3.420239918E0,-1.546674494E1,9.437335896E-1,1.586848680E1
1.205504204E1,2.300985925E0,-1.511908236E1,7.774083710E-1,1.531292106E1
1.206496404E1,1.626316203E0,-1.399609068E1,4.614903259E-1,1.409781657E1
1.207488604E1,1.031408495E0,-1.234417508E1,-3.115723944E-1,1.239110726E1
1.208480704E1,3.925541385E-1,-1.026362114E1,-8.689956486E-1,1.030782087E1
1.209472904E1,-4.401873113E-1,-7.976005608E0,-6.082110000E-1,8.011264004E0
1.210465104E1,-1.495458440E0,-6.381697941E0,-5.176996100E-1,6.574988779E0
1.211457304E1,-2.701585832E0,-5.281908597E0,-2.721200609E-1,5.938953929E0
1.212449504E1,-3.610465046E0,-4.893075188E0,8.158620000E-2,6.081471776E0
1.213441604E1,-3.668947728E0,-5.388946558E0,4.318928897E-1,6.533640172E0
1.214433804E1,-2.894244279E0,-6.710105054E0,5.556959867E-1,7.328776010E0
1.215426004E1,-1.734446715E0,-8.167656287E0,3.269412160E-1,8.356183650E0
1.216418204E1,-3.788270688E-1,-9.631666939E0,6.822531223E-2,9.639355407E0
1.217410304E1,7.692188338E-1,-1.082794762E1,2.210761706E-1,1.085748691E1
1.218402504E1,1.473013172E0,-1.135251654E1,6.785623598E-1,1.146777426E1
1.219394704E1,1.687264947E0,-1.104680773E1,1.207161180E0,1.123993159E1
1.220386904E1,1.250598537E0,-1.021928288E1,1.530488816E0,1.040865674E1
1.221379104E1,5.611441299E-1,-9.304275488E0,1.193079915E0,9.397226440E0
1.222371204E1,1.255609162E-2,-7.982856206E0,3.258623682E-1,7.989514199E0
1.223363404E1,-7.649893966E-1,-5.636433468E0,-1.014501856E0,5.777872016E0
1.224355604E1,-1.037605082E0,-2.330970300E0,-2.249076537E0,3.401233911E0
1.225347804E1,-1.355317345E0,1.133275178E0,-3.503244653E0,3.923508740E0
1.226340004E1,-8.997711526E-1,5.406074222E0,-4.424420854E0,7.043488235E0
1.227332104E1,1.038158229E0,9.541525093E0,-6.844122652E0,1.178815034E1
1.228324304E1,3.876887580E0,1.371841226E1,-7.653367943E0,1.618020807E1
1.229316504E1,6.338243773E0,1.960981766E1,-5.212864090E0,2.125775705E1
1.230308704E1,6.385737782E0,2.835563260E1,1.967516585E0,2.913229597E1
1.231300804E1,1.557978331E0,3.636556960E1,1.299084789E1,3.864769175E1
1.232293004E1,-4.204065024E0,3.994626881E1,2.171893056E1,4.566279119E1
1.233285204E1,-7.847125373E0,3.983573304E1,2.374306121E1,4.703398728E1
1.234277404E1,-9.590425943E0,3.458331488E1,1.900491852E1,4.060996018E1
1.235269604E1,-8.006877737E0,2.592822183E1,6.427681029E0,2.788723475E1
1.236261704E1,-6.093991542E0,1.782816169E1,-1.027477412E1,2.146045353E1
1.237253904E1,-5.505527174E0,1.250496532E1,-1.504965369E1,2.032675733E1
1.238246104E1,-2.801336407E0,8.620174645E0,-1.090012448E1,1.417630454E1
1.239238304E1,4.605799875E-1,5.918115481E0,-6.319503447E0,8.670198878E0
1.240230404E1,2.461729538E0,2.999015858E0,-1.497895852E0,4.159074466E0
1.241222604E1,3.271142936E0,4.170117259E-2,3.034021969E0,4.461771442E0
1.242214804E1,2.758009416E0,-2.350554380E0,6.007293706E0,7.015646763E0
1.243207004E1,2.596112587E0,-4.522664017E0,5.805195222E0,7.803498058E0
1.244199204E1,2.912204294E0,-6.510389895E0,3.821779912E0,8.091483926E0
1.245191304E1,3.315418053E0,-8.000856274E0,2.243603543E0,8.946477231E0
1.246183504E1,3.993281670E0,-8.935529603E0,1.192929569E0,9.859668795E0
1.247175704E1,4.602211001E0,-9.478075787E0,5.378584707E-1,1.055005016E1
1.248167904E1,5.016381272E0,-1.022104289E1,4.071463037E-1,1.139296129E1
1.249160104E1,4.916942353E0,-1.118107033E1,2.696952206E-1,1.221742163E1
1.250152204E1,4.249606063E0,-1.226205912E1,9.266089953E-2,1.297789781E1
1.251144404E1,3.344145131E0,-1.346140374E1,-7.653976053E-1,1.389167128E1
1.252136604E1,2.410013985E0,-1.421487127E1,-1.597932356E0,1.450600291E1
1.253128804E1,1.399688649E0,-1.446793994E1,-2.021189493E0,1.467534058E1
1.254120904E1,7.152315648E-1,-1.445372535E1,-2.083971047E0,1.462069315E1
1.255113104E1,8.250723148E-1,-1.528420305E1,-2.552943470E0,1.551789701E1
1.256105304E1,1.113547257E0,-1.534755764E1,-2.691242985E0,1.562146926E1
1.257097504E1,5.362883471E-1,-1.376401820E1,-2.052378395E0,1.392652359E1
1.258089704E1,1.714476719E-1,-1.210565078E1,-1.131519552E0,1.215962629E1
1.259081804E1,-2.210646589E-1,-1.008803393E1,-3.344831009E-1,1.009599808E1
1.260074050E1,-7.604662098E-1,-7.929871076E0,4.345473795E-1,7.978094733E0
1.261066250E1,-1.254406536E0,-6.101880605E0,6.655945511E-1,6.264942042E0
1.262058450E1,-1.661674169E0,-4.794225084E0,3.135974313E-1,5.083709133E0
1.263050650E1,-1.964299447E0,-4.078022443E0,-1.758817618E-1,4.529864651E0
1.264042750E1,-2.111540815E0,-4.191725060E0,-8.836679207E-1,4.775984986E0
1.265034950E1,-2.047063130E0,-5.057844463E0,-1.667915341E0,5.705628769E0
1.266027150E1,-1.569550556E0,-6.582517054E0,-2.110806259E0,7.088619243E0
1.267019350E1,-9.057547545E-1,-8.051814759E0,-1.822297037E0,8.304991215E0
1.268011450E1,-1.336886922E-1,-9.097337263E0,-1.376923392E0,9.201920233E0
1.269003650E1,8.083615572E-1,-9.711298415E0,-1.007233328E0,9.796799696E0
1.269995850E1,1.921317880E0,-1.014678559E1,-5.711162639E-1,1.034286682E1
1.270988050E1,2.463055394E0,-1.031460769E1,-1.090622663E-2,1.060461657E1
1.271980250E1,2.650839894E0,-1.000121799E1,4.127888668E-1,1.035479155E1
1.272972350E1,2.880387839E0,-8.631512396E0,1.092252867E0,9.164750770E0
1.273964550E1,2.717192928E0,-6.373727601E0,1.381081201E0,7.065049626E0
1.274956750E1,2.846293894E0,-3.517282648E0,1.036511360E0,4.641876987E0
1.275948950E1,3.402781886E0,-3.585226125E-1,2.544239013E-1,3.431063181E0
1.276941150E1,3.507931781E0,3.988990983E0,-1.057510466E0,5.416268349E0
1.277933250E1,1.915804541E0,9.486561266E0,-1.731608330E0,9.831765818E0
1.278925450E1,-1.192651022E0,1.559393007E1,-8.538174462E-1,1.566276079E1
1.279917650E1,-5.412394477E0,2.460004784E1,7.748474367E-1,2.520033247E1
1.280909850E1,-1.189911426E1,3.530716743E1,6.106723269E0,3.775549048E1
1.281901950E1,-1.820339740E1,4.221877280E1,1.139767692E1,4.736766294E1
1.282894150E1,-2.052967707E1,4.605701145E1,5.891862652E0,5.076839558E1
1.283886350E1,-1.980958076E1,4.388506086E1,-4.351148517E-1,4.815088142E1
1.284878550E1,-1.595071547E1,3.577159774E1,1.307362576E0,3.918854074E1
1.285870750E1,-9.711762684E0,2.663616528E1,2.591630988E0,2.846963622E1
1.286862850E1,-3.606620210E0,1.837169430E1,2.511597809E0,1.889007635E1
1.287855050E1,1.427171440E0,1.143299995E1,2.014801848E0,1.169656927E1
1.288847250E1,4.701397320E0,5.644224883E0,1.375481615E0,7.473443715E0
1.289839450E1,5.477168763E0,9.122972041E-1,6.744527905E-1,5.593438156E0
1.290831650E1,3.701261780E0,-2.620261295E0,4.066153765E-3,4.534878670E0
1.291823750E1,9.987974042E-1,-5.370443044E0,-6.166877085E-1,5.497231892E0
1.292815950E1,-7.235862127E-1,-7.863198785E0,-9.404753749E-1,7.952230257E0
1.293808150E1,-6.003576046E-1,-9.124297605E0,-4.357390420E-1,9.154403561E0
1.294800350E1,7.302765968E-1,-1.045944907E1,-7.538742051E-2,1.048518298E1
1.295792450E1,2.660909384E0,-1.156755140E1,1.354202720E-1,1.187042640E1
1.296784650E1,4.451702793E0,-1.205923675E1,6.882862063E-1,1.287309546E1
1.297776850E1,5.471336750E0,-1.254154199E1,7.742520440E-1,1.370493589E1
1.298769050E1,5.755206206E0,-1.266116199E1,6.949111748E-1,1.392516869E1
1.299761250E1,5.456379572E0,-1.264540843E1,7.613694584E-1,1.379340842E1
1.300753350E1,5.429078922E0,-1.311073102E1,7.041334764E-1,1.420781368E1
1.301745550E1,5.754978749E0,-1.388939888E1,4.118135512E-1,1.504010545E1
1.302737750E1,5.488899447E0,-1.431095974E1,3.410248196E-1,1.533127143E1
1.303729950E1,4.544693694E0,-1.444613567E1,4.064738739E-1,1.514959727E1
1.304722150E1,3.795708931E0,-1.427078001E1,-1.177284247E-1,1.476741102E1
1.305714250E1,3.416579854E0,-1.382787447E1,-8.363716936E-1,1.426823913E1
1.306706450E1,3.120146485E0,-1.311075441E1,-1.344874949E0,1.354385041E1
1.307698650E1,2.558567907E0,-1.195371556E1,-1.577811502E0,1.232587013E1
1.308690850E1,1.796618113E0,-1.035259588E1,-1.377781178E0,1.059728074E1
1.309683050E1,8.735670018E-1,-8.535347334E0,-9.699560130E-1,8.634586735E0
1.310675150E1,1.448457643E-1,-6.795895987E0,-7.990898466E-1,6.844247741E0
1.311667350E1,-2.414201322E-1,-5.201715789E0,-9.573482466E-1,5.294586527E0
1.312659550E1,-6.475697780E-1,-4.188365834E0,-1.066790436E0,4.370331431E0
1.313651750E1,-1.169515344E0,-3.927577677E0,-7.942962992E-1,4.174271093E0
1.314643850E1,-1.554990112E0,-4.358170731E0,-3.340156160E-1,4.639311673E0
1.315636050E1,-1.073799055E0,-5.549746742E0,-3.798229958E-1,5.665421328E0
1.316628250E1,-3.132990772E-1,-6.951634237E0,-8.878271914E-1,7.015098858E0
1.317620450E1,1.135776325E-1,-8.136046239E0,-1.284828430E0,8.237653330E0
1.318612650E1,2.602259472E-1,-8.974935744E0,-1.468516517E0,9.098006920E0
1.319604750E1,2.628655265E-1,-9.302782694E0,-1.486783949E0,9.424510101E0
1.320596950E1,4.199894205E-2,-9.180062501E0,-1.416645428E0,9.288821007E0
1.321589150E1,-3.833848272E-1,-8.586467786E0,-1.542658188E0,8.732365501E0
1.322581350E1,-5.716009980E-1,-7.036591941E0,-1.928486567E0,7.318429769E0
1.323573550E1,-2.278031364E-1,-4.270843735E0,-1.883714436E0,4.673369293E0
1.324565650E1,1.377647862E-2,-8.113421023E-1,-1.262243267E0,1.500574511E0
1.325557850E1,6.225425255E-1,2.372713573E0,-4.621779585E-1,2.496184561E0
1.326550050E1,2.290333906E0,5.348571534E0,-8.228833365E-1,5.876221901E0
1.327542250E1,3.848922687E0,8.625293298E0,-1.519128261E0,9.566485300E0
1.328534450E1,5.387957793E0,1.149555113E1,-9.191233899E-1,1.272880877E1
1.329526550E1,7.241880666E0,1.404819288E1,2.630590694E-1,1.580714266E1
1.330518750E1,6.864862726E0,1.857965637E1,2.562987233E0,1.997245290E1
1.331510950E1,-6.675216472E-1,2.626012148E1,5.915026982E0,2.692632745E1
1.332503150E1,-1.332379888E1,3.439038015E1,1.060092012E1,3.837448854E1
1.333495250E1,-2.600604827E1,4.018666421E1,1.006855686E1,4.891480721E1
1.334487450E1,-3.650280375E1,4.368249928E1,9.683772647E-1,5.693463953E1
1.335479650E1,-3.136663992E1,4.046306911E1,-2.874955484E0,5.127759190E1
1.336471850E1,-1.894814089E1,3.135553021E1,-2.114509885E0,3.669703626E1
1.337464050E1,-9.795422307E0,2.049957560E1,-1.972680992E0,2.280513908E1
1.338456150E1,-2.314741938E0,1.004003882E1,-4.816211200E0,1.137349111E1
1.339448350E1,3.342991183E0,-6.470002592E-2,-1.168309238E1,1.215213659E1
1.340440550E1,1.177277522E0,-6.466648629E0,-5.710065701E0,8.706800627E0
1.341432750E1,-1.821260618E0,-8.677082672E0,2.662825516E0,9.257396700E0
1.342424950E1,-2.027151899E0,-9.169493659E0,4.385102422E0,1.036426949E1
1.343417050E1,-4.273855636E-1,-8.612138817E0,3.899715110E0,9.463581318E0
1.344409250E1,2.885748567E0,-8.852182807E0,6.887780303E-1,9.336118059E0
1.345401450E1,5.650905327E0,-9.140761610E0,-1.452453631E0,1.084416319E1
1.346393650E1,6.514345536E0,-9.438412369E0,-6.826530719E-1,1.148853085E1
1.347385750E1,6.618861008E0,-9.810725055E0,8.414726218E-2,1.183497900E1
1.348377950E1,6.429610611E0,-9.316789114E0,8.327125061E-1,1.135058862E1
1.349370150E1,6.175892322E0,-9.241186954E0,1.835207689E0,1.126539700E1
1.350362350E1,6.108890247E0,-1.004559134E1,2.768600478E0,1.207880764E1
1.351354550E1,6.092166041E0,-1.100866050E1,3.497433690E0,1.305898677E1
1.352346650E1,6.669346452E0,-1.221722852E1,3.430821624E0,1.433566851E1
1.353338850E1,7.187921391E0,-1.362750209E1,2.624083035E0,1.562884637E1
1.354331050E1,7.024704552E0,-1.484418487E1,1.906874088E0,1.653276950E1
1.355323250E1,6.323962533E0,-1.567867376E1,1.314414902E0,1.695703393E1
1.356315450E1,4.969488941E0,-1.593660029E1,2.397100775E-1,1.669516428E1
1.357307550E1,3.149413261E0,-1.511014548E1,-7.344839609E-1,1.545233856E1
1.358299750E1,1.221947326E0,-1.373931489E1,-1.293669566E0,1.385407917E1
1.359291950E1,-4.434192136E-2,-1.228804064E1,-1.825535810E0,1.242298233E1
1.360284112E1,-4.105843203E-1,-1.086540254E1,-2.250193355E0,1.110355448E1
1.361276312E1,-2.921587613E-1,-9.277558390E0,-2.164483699E0,9.531182303E0
1.362268412E1,-8.134079236E-1,-7.571639071E0,-1.483336869E0,7.758327070E0
1.363260612E1,-1.712888908E0,-6.356497611E0,-8.655685955E-1,6.639899041E0
1.364252812E1,-2.378553480E0,-5.582654872E0,-5.070296109E-1,6.089386759E0
1.365245012E1,-2.278892951E0,-5.309754792E0,-6.072251594E-1,5.809954512E0
1.366237212E1,-1.758611065E0,-5.599185535E0,-9.091495749E-1,5.938867273E0
1.367229312E1,-6.738667533E-1,-6.957652191E0,-9.609197259E-1,7.055946934E0
1.368221512E1,6.702511275E-1,-8.501069201E0,-1.066192997E0,8.593845568E0
1.369213712E1,2.164802957E0,-1.005572339E1,-7.319638109E-1,1.031211500E1
1.370205912E1,3.288264168E0,-1.137228948E1,-4.000104348E-1,1.184490007E1
1.371198112E1,3.697809877E0,-1.155581721E1,-9.617383361E-2,1.213342321E1
1.372190212E1,3.228732204E0,-9.862126758E0,6.418780982E-2,1.037739736E1
1.373182412E1,2.447629708E0,-6.998409038E0,-5.940193690E-2,7.414320525E0
1.374174612E1,1.557578236E0,-3.284948212E0,-8.055873457E-1,3.723695166E0
1.375166812E1,1.113158125E0,1.963379241E0,-2.837177793E0,3.625404375E0
1.376158913E1,9.124337366E-1,8.460611147E0,-4.504175706E0,9.628191683E0
1.377151113E1,1.080440907E0,1.709559562E1,-3.884950891E0,1.756472560E1
1.378143313E1,8.359808072E-2,2.903079655E1,-7.255366977E-1,2.903998176E1
1.379135513E1,-5.013419073E0,3.924787737E1,8.144812970E0,4.039638879E1
1.380127713E1,-8.263343632E0,4.439119117E1,1.650187870E1,4.807465758E1
1.381119813E1,-9.021677801E0,4.721613542E1,1.683819885E1,5.093406576E1
1.382112013E1,-1.122796617E1,4.219714746E1,1.435826956E1,4.596549121E1
1.383104213E1,-1.064753178E1,3.129663238E1,3.237809713E0,3.321644989E1
1.384096413E1,-1.095608584E1,2.111413902E1,-3.762835300E0,2.408322264E1
1.385088512E1,-1.058057181E1,1.360482308E1,-3.879405391E-1,1.723920557E1
1.386080712E1,-5.650712954E0,8.829546481E0,1.123320147E0,1.054292635E1
1.387072912E1,-8.658461921E-1,5.710262167E0,5.121308680E-1,5.798194691E0
1.388065112E1,1.497526015E0,3.222832071E0,5.080318236E-1,3.589892346E0
1.389057312E1,2.192305335E0,1.272776295E0,1.475451314E-1,2.539277800E0
1.390049412E1,1.870256192E0,-2.542638338E-1,-6.985013652E-1,2.012563658E0
1.391041612E1,5.416895664E-1,-1.881202472E0,-8.243685293E-1,2.124131305E0
1.392033812E1,-9.765294528E-1,-3.696433150E0,-2.668237261E-1,3.832547808E0
1.393026012E1,-1.300923622E0,-5.566558072E0,1.166086829E-1,5.717741567E0
1.394018212E1,-1.345090565E-1,-7.532611245E0,3.533847371E-1,7.542095573E0
1.395010312E1,2.204307769E0,-9.053463850E0,3.521140276E-1,9.324599976E0
1.396002512E1,4.874973378E0,-1.077412166E1,8.832862437E-1,1.185863641E1
1.396994712E1,6.954938498E0,-1.278466454E1,1.286367563E0,1.461073436E1
1.397986912E1,8.161030222E0,-1.429904896E1,1.295384554E0,1.651493980E1
1.398979112E1,8.256104195E0,-1.512484304E1,1.184424282E0,1.727214504E1
1.399971212E1,7.429780941E0,-1.538794669E1,7.855991507E-1,1.710578014E1
1.400963412E1,6.297296891E0,-1.527188414E1,-2.023724992E-2,1.651928579E1
1.401955612E1,4.806334375E0,-1.477380779E1,-7.115359783E-1,1.555225161E1
1.402947812E1,3.375226883E0,-1.421501628E1,-9.747752881E-1,1.464271257E1
1.403939913E1,2.649508483E0,-1.367848045E1,-1.142062958E0,1.397945029E1
1.404932113E1,2.461507343E0,-1.305439192E1,-1.022363437E0,1.332371547E1
1.405924313E1,2.211810185E0,-1.202395348E1,-4.498350710E-1,1.223396556E1
1.406916513E1,1.593864156E0,-1.023770979E1,2.528096312E-1,1.036412164E1
1.407908713E1,5.814377689E-1,-7.701075960E0,6.222034601E-1,7.748017680E0
1.408900813E1,-3.924557590E-1,-5.386348055E0,6.188144139E-1,5.435963408E0
1.409893013E1,-1.007393396E0,-3.882312042E0,3.285106087E-1,4.024314534E0
1.410885213E1,-1.174607684E0,-3.626171837E0,-6.791467890E-3,3.811675685E0
1.411877413E1,-8.110091034E-1,-4.659708134E0,-2.205721772E-1,4.734898916E0
1.412869613E1,-1.454984598E-1,-6.482559487E0,-3.517140415E-1,6.493723899E0
1.413861712E1,4.459430180E-1,-8.613788316E0,-3.483888761E-1,8.632357102E0
1.414853912E1,7.337609527E-1,-1.044255413E1,-2.760938287E-1,1.047194202E1
1.415846112E1,9.123528989E-1,-1.157656313E1,-4.913860432E-1,1.162285086E1
1.416838312E1,1.098086050E0,-1.210029356E1,-1.136877648E0,1.220308928E1
1.417830512E1,1.339164704E0,-1.174780937E1,-1.693505681E0,1.194455309E1
1.418822612E1,1.169152524E0,-1.010589016E1,-1.634119020E0,1.030370218E1
1.419814812E1,2.002731295E-1,-7.068944001E0,-1.166514918E0,7.167345092E0
1.420807012E1,-1.190030300E0,-2.799481378E0,-6.838915122E-1,3.117847928E0
1.421799212E1,-1.926889692E0,2.203186419E0,-7.039158869E-1,3.010387327E0
1.422791312E1,-2.587757792E0,6.606919239E0,-1.071664748E0,7.176094868E0
1.423783512E1,-2.751237756E0,1.080805188E1,-8.732091522E-1,1.118685787E1
1.424775712E1,-2.038276519E0,1.422382102E1,-9.579702441E-1,1.440101950E1
1.425767912E1,-7.375058019E-1,1.598228342E1,-1.829522442E0,1.610355397E1
1.426760112E1,8.967167133E-1,1.759109803E1,-1.697150835E0,1.769551219E1
1.427752212E1,1.417659481E0,2.053852040E1,1.331859047E0,2.063042479E1
1.428744412E1,1.087775654E0,2.555262944E1,5.887138102E0,2.624459034E1
1.429736612E1,-4.143368002E0,3.201638019E1,7.434580336E0,3.312837279E1
1.430728812E1,-1.378016119E1,3.790457079E1,4.638182194E0,4.059756228E1
1.431720913E1,-2.057969649E1,4.010818055E1,1.771273649E0,4.511460367E1
1.432713113E1,-1.956885090E1,3.537223758E1,1.245000120E-1,4.042462885E1
1.433705313E1,-1.283763213E1,2.669610859E1,-1.563239071E0,2.966362637E1
1.434697513E1,-6.504468420E0,1.819306888E1,-2.067285433E0,1.943114855E1
1.435689713E1,-1.728302753E0,1.068583338E1,-1.190834584E0,1.089000241E1
1.436681813E1,1.456730723E0,4.097828717E0,-3.253296503E-1,4.361204417E0
1.437674013E1,2.703737315E0,-1.212939398E0,1.810882322E-1,2.968873591E0
1.438666213E1,2.353127301E0,-5.298117664E0,7.494604343E-1,5.845421269E0
1.439658413E1,2.013687369E0,-8.409277271E0,1.589127034E0,8.791826077E0
1.440650613E1,2.786443257E0,-1.056241035E1,2.042867460E0,1.111314924E1
1.441642712E1,4.225936534E0,-1.226903719E1,2.022590486E0,1.313311408E1
1.442634912E1,5.112978444E0,-1.273396568E1,3.142126461E0,1.407726497E1
1.443627112E1,5.465003046E0,-1.294870467E1,3.339564714E0,1.444603418E1
1.444619312E1,5.999359619E0,-1.323900139E1,2.941411428E0,1.482954398E1
1.445611512E1,6.293762834E0,-1.445804879E1,2.396606466E0,1.594961905E1
1.446603612E1,5.727964613E0,-1.519801510E1,1.856479275E0,1.634734709E1
1.447595812E1,4.823001279E0,-1.501296475E1,1.484710965E0,1.583839697E1
1.448588012E1,3.880385969E0,-1.496835752E1,9.965748775E-1,1.549523422E1
1.449580212E1,2.898130923E0,-1.533616141E1,3.970551789E-1,1.561264432E1
1.450572312E1,2.305298246E0,-1.552070422E1,-4.771035612E-1,1.569822561E1
1.451564512E1,2.163578550E0,-1.543540153E1,-1.012410307E0,1.561914425E1
1.452556712E1,1.957478524E0,-1.539417749E1,-3.967616487E-1,1.552320336E1
1.453548912E1,1.527288782E0,-1.449715146E1,4.566102763E-1,1.458452962E1
1.454541112E1,1.131908245E0,-1.241979010E1,1.066498221E0,1.251678157E1
1.455533212E1,8.787143058E-1,-9.728267620E0,1.248654191E0,9.847358377E0
1.456525412E1,4.053563248E-1,-7.149028051E0,1.094450251E0,7.243668765E0
1.457517612E1,-8.060473023E-1,-4.962701494E0,6.168420750E-1,5.065433102E0
1.458509812E1,-2.147433802E0,-3.337469072E0,2.888034097E-1,3.979143018E0
1.459501913E1,-2.847321543E0,-2.402482917E0,4.086618289E-1,3.747821851E0
1.460494200E1,-2.924636936E0,-2.306803758E0,3.330018550E-1,3.739750663E0
1.461486400E1,-1.756609709E0,-4.174671655E0,-1.913910627E-2,4.529230332E0
1.462478600E1,-8.026034385E-3,-6.937792123E0,-2.452282045E-1,6.942129416E0
1.463470800E1,1.220794694E0,-8.708692135E0,-1.870032390E-1,8.795830182E0
1.464462900E1,1.941077522E0,-9.969383404E0,-2.987226263E-1,1.016098532E1
1.465455100E1,2.165682816E0,-1.064929062E1,-6.593800572E-1,1.088725654E1
1.466447300E1,2.056987901E0,-1.035070373E1,-1.206073013E0,1.062181147E1
1.467439500E1,1.422880168E0,-9.109680151E0,-1.656637816E0,9.367780382E0
1.468431700E1,8.263329014E-2,-7.165348799E0,-2.271035609E0,7.517090821E0
1.469423800E1,-1.207242748E0,-4.845854829E0,-2.956568581E0,5.803537012E0
1.470416000E1,-1.077304607E0,-2.116914845E0,-3.140460005E0,3.937563043E0
1.471408200E1,-3.041145632E-1,1.132330853E0,-3.287129808E0,3.489968654E0
1.472400400E1,-1.540027964E-1,4.343707643E0,-2.301623710E0,4.918229829E0
1.473392500E1,1.052533755E0,7.968514155E0,-7.035549675E-1,8.068459254E0
1.474384700E1,3.520716718E0,1.192641608E1,2.490716524E-1,1.243772018E1
1.475376900E1,6.257853913E0,1.644021162E1,1.830733985E0,1.768595151E1
1.476369100E1,7.501323963E0,2.093012246E1,3.290678483E0,2.247595276E1
1.477361300E1,3.311403062E0,2.540501999E1,5.744496446E0,2.625604064E1
1.478353400E1,-3.555376089E0,3.237357490E1,9.803182731E0,3.401163687E1
1.479345600E1,-1.455755787E1,3.855049867E1,7.708338202E0,4.192233196E1
1.480337800E1,-2.441980157E1,4.019536487E1,4.368889847E0,4.723432295E1
1.481330000E1,-2.463190347E1,3.422893151E1,4.698729528E0,4.243145626E1
1.482322100E1,-1.866909305E1,2.538990377E1,2.504330889E0,3.161414117E1
1.483314300E1,-1.131657487E1,1.779024016E1,-3.954717529E-1,2.108824103E1
1.484306500E1,-3.651645817E0,1.110505068E1,-1.805813298E0,1.182867826E1
1.485298700E1,1.472924586E0,5.512674226E0,-7.274858670E-1,5.752244748E0
1.486290900E1,2.954750974E0,2.110833156E0,7.248682147E-1,3.702918290E0
1.487283000E1,2.032434566E0,5.850665510E-1,7.145543110E-1,2.232415955E0
1.488275200E1,2.783274651E-1,-5.166354167E-1,-2.383079517E-1,6.333790425E-1
1.489267400E1,-9.833709875E-1,-1.571167896E0,-1.412816525E0,2.330587391E0
1.490259600E1,-1.043617482E0,-2.859610051E0,-1.715228087E0,3.494068471E0
1.491251700E1,3.597021420E-1,-4.370885502E0,-1.114515629E0,4.525060307E0
1.492243900E1,2.428782085E0,-6.085797839E0,-2.650952526E-1,6.557910738E0
1.493236100E1,4.226493773E0,-8.101264662E0,2.644351385E-1,9.141316354E0
1.494228300E1,5.709510800E0,-1.020088169E1,2.372637121E-1,1.169242468E1
1.495220500E1,6.225368537E0,-1.215054219E1,3.188366096E-2,1.365254209E1
1.496212600E1,6.129694056E0,-1.384361869E1,7.642541092E-2,1.514017069E1
1.497204800E1,5.782821436E0,-1.523171377E1,4.437744319E-1,1.629856018E1
1.498197000E1,5.353709482E0,-1.594462969E1,9.446878552E-1,1.684594480E1
1.499189200E1,4.834285820E0,-1.585020184E1,9.614155698E-1,1.659890170E1
1.500181300E1,4.262524609E0,-1.535415447E1,3.084610909E-1,1.593782682E1
1.501173500E1,3.903710513E0,-1.468684215E1,-4.689507884E-1,1.520401930E1
1.502165700E1,3.840852652E0,-1.389549285E1,-7.934712571E-1,1.443836788E1
1.503157900E1,3.387048783E0,-1.272678296E1,-8.213783363E-1,1.319536912E1
1.504150100E1,2.035316951E0,-1.103318606E1,-5.588634235E-1,1.123325590E1
1.505142200E1,1.140552038E-1,-9.195952309E0,-2.736812675E-1,9.200730890E0
1.506134400E1,-1.369783211E0,-7.728384211E0,-2.432669022E-1,7.852605131E0
1.507126600E1,-1.911692194E0,-6.692570423E0,-4.601431274E-1,6.975442467E0
1.508118800E1,-1.775206778E0,-5.933459160E0,-6.100090188E-1,6.223295567E0
1.509111000E1,-1.816898157E0,-5.489842018E0,-3.495324453E-1,5.793242376E0
1.510103100E1,-2.010851762E0,-5.786882327E0,1.563515864E-1,6.128293212E0
1.511095300E1,-1.515713487E0,-7.082186190E0,3.201531833E-1,7.249637692E0
1.512087500E1,-3.861369655E-1,-8.551578619E0,3.223909128E-1,8.566360636E0
1.513079700E1,5.925039900E-1,-9.630474107E0,4.591829415E-1,9.659603588E0
1.514071800E1,1.148846021E0,-1.051455323E1,6.207550317E-1,1.059532981E1
1.515064000E1,1.101918607E0,-1.097838595E1,8.495308524E-1,1.106620465E1
1.516056200E1,8.009712613E-1,-1.114418258E1,8.967640027E-1,1.120886016E1
1.517048400E1,5.490155429E-1,-1.080785776E1,3.650323176E-1,1.082794791E1
1.518040500E1,9.739253953E-2,-9.723936587E0,-4.891405662E-1,9.736718469E0
1.519032700E1,-5.395804026E-1,-7.833876168E0,-1.587470518E0,8.011293620E0
1.520024900E1,-1.151362370E0,-5.225203469E0,-2.719078655E0,6.001814337E0
1.521017100E1,-1.600548985E0,-1.629226069E0,-3.314378418E0,4.025076264E0
1.522009300E1,-1.164765943E0,3.123780237E0,-2.855712882E0,4.389735611E0
1.523001400E1,-4.003021377E-1,7.883323731E0,-1.771529757E0,8.089830192E0
1.523993600E1,1.620741467E0,1.213080667E1,-8.024753845E-1,1.226487832E1
1.524985800E1,5.286013927E0,1.597089304E1,-1.277024297E0,1.687134135E1
1.525978000E1,8.685265850E0,1.973476447E1,-9.573085586E-1,2.158265997E1
1.526970100E1,1.081116026E1,2.437910028E1,1.998532117E0,2.674351972E1
1.527962300E1,9.341218196E0,3.167560680E1,8.024101295E0,3.398512358E1
1.528954500E1,8.387988728E-1,4.049369449E1,1.209128768E1,4.226868953E1
1.529946700E1,-1.237802929E1,4.497921524E1,9.541344414E0,4.761704176E1
1.530938800E1,-2.286454746E1,4.454913616E1,1.866654600E0,5.010885613E1
1.531931000E1,-2.410095524E1,3.511158742E1,2.452134695E0,4.265785484E1
1.532923200E1,-1.743587667E1,2.245797652E1,-2.244523895E-1,2.843274316E1
1.533915400E1,-8.237508295E0,1.187485767E1,-4.440605947E0,1.511911931E1
1.534907600E1,-9.959847473E-1,4.538991197E0,-5.650993620E0,7.316293843E0
1.535899700E1,3.768436055E0,-1.685635328E-2,-4.297836236E0,5.716011788E0
1.536891900E1,5.520014820E0,-2.298241680E0,-1.517931336E0,6.169002673E0
1.537884100E1,4.665237261E0,-3.370660792E0,1.482055160E0,5.943255032E0
1.538876300E1,3.130723806E0,-4.162943895E0,3.376291661E0,6.207324609E0
1.539868400E1,2.405383282E0,-5.242702432E0,4.041153409E0,7.042919736E0
1.540860600E1,2.383058175E0,-6.404931267E0,4.099078267E0,7.968974428E0
1.541852800E1,3.133341020E0,-7.693613743E0,3.780451791E0,9.126956454E0
1.542845000E1,4.123384557E0,-8.949064153E0,2.839772787E0,1.025438242E1
1.543837200E1,5.128949529E0,-1.006804932E1,1.713531225E0,1.142838264E1
1.544829300E1,5.634075286E0,-1.143755610E1,1.117792336E0,1.279882626E1
1.545821500E1,5.731008673E0,-1.280037133E1,1.133328461E0,1.407047974E1
1.546813700E1,5.501614802E0,-1.415590912E1,1.084398960E0,1.522607794E1
1.547805900E1,5.007829134E0,-1.513248301E1,7.204961785E-1,1.595586129E1
1.548798000E1,4.349453994E0,-1.526936516E1,5.745941877E-1,1.588714641E1
1.549790200E1,3.463395293E0,-1.492979981E1,6.645500922E-1,1.534065370E1
1.550782400E1,2.931491042E0,-1.444114215E1,7.395207524E-1,1.475422371E1
1.551774600E1,3.222495856E0,-1.402800245E1,3.218365967E-1,1.439697576E1
1.552766800E1,3.741844088E0,-1.343547953E1,-2.163528264E-1,1.394848794E1
1.553758900E1,3.421059113E0,-1.206137332E1,-5.455171537E-1,1.254902231E1
1.554751100E1,2.266939196E0,-1.004144332E1,-5.849624705E-1,1.031076032E1
1.555743300E1,9.632678215E-1,-8.038789501E0,-2.236659390E-1,8.099385655E0
1.556735500E1,2.494999610E-1,-6.368223617E0,1.491560302E-1,6.374854492E0
1.557727600E1,-1.740800884E-1,-5.100148484E0,4.850078273E-1,5.126114613E0
1.558719800E1,-7.894814095E-1,-4.468881328E0,1.054415535E0,4.658966982E0
1.559712000E1,-1.089209538E0,-5.045944794E0,1.359775847E0,5.338251272E0
1.560704192E1,-6.513295376E-1,-6.596127033E0,1.047194223E0,6.710420087E0
1.561696292E1,2.111676617E-1,-8.292276825E0,6.971331167E-1,8.324208149E0
1.562688492E1,9.146958782E-1,-9.543713121E0,7.275257012E-1,9.615010262E0
1.563680692E1,9.752598030E-1,-1.036829683E1,1.098561940E0,1.047184555E1
1.564672892E1,7.468028748E-1,-1.079982017E1,1.037158062E0,1.087517941E1
1.565665092E1,5.787169133E-1,-1.068282324E1,3.138815329E-1,1.070309054E1
1.566657192E1,2.820094568E-1,-9.956196764E0,-6.966226548E-1,9.984521343E0
1.567649392E1,-3.168814469E-1,-8.583688020E0,-1.490844256E0,8.717954488E0
1.568641592E1,-1.119729957E0,-6.478120866E0,-1.734615700E0,6.799171770E0
1.569633792E1,-1.636838121E0,-3.523015258E0,-1.414676524E0,4.134269611E0
1.570625892E1,-1.757767604E0,2.738414812E-1,-4.023809691E-1,1.823909688E0
1.571618092E1,-1.050498193E0,3.827061117E0,5.816032451E-1,4.011010543E0
1.572610292E1,6.181826223E-1,7.183651754E0,9.921268275E-1,7.278139729E0
1.573602492E1,3.441879294E0,1.080968209E1,3.952844958E-1,1.135129991E1
1.574594592E1,6.515321437E0,1.505075648E1,-2.470648149E-1,1.640230853E1
1.575586792E1,8.474154468E0,2.060508744E1,6.026408692E-1,2.228775669E1
1.576578992E1,7.706474109E0,2.795206947E1,3.854174071E0,2.925000151E1
1.577571192E1,2.689292646E0,3.591435634E1,9.641711286E0,3.728318498E1
1.578563292E1,-7.163425065E0,4.237159095E1,1.147317734E1,4.447808647E1
1.579555492E1,-1.872060351E1,4.514969198E1,4.897200984E0,4.912166792E1
1.580547692E1,-2.551184628E1,4.049555157E1,-7.266919613E-3,4.786171800E1
1.581539892E1,-2.268474090E1,2.963748260E1,-2.618207753E0,3.741434025E1
1.582531992E1,-1.498136523E1,1.888189661E1,-4.913773747E0,2.459903446E1
1.583524192E1,-6.529378143E0,9.765689800E0,-5.026151969E0,1.277746766E1
1.584516392E1,4.973881370E-1,2.761430038E0,-3.728072433E0,4.665984878E0
1.585508592E1,4.640476349E0,-2.426866976E0,-2.251097335E0,5.700100287E0
1.586500792E1,5.964345907E0,-6.029083940E0,-5.419574054E-1,8.498058195E0
1.587492892E1,5.863638142E0,-8.518307378E0,1.414404044E0,1.043764110E1
1.588485092E1,5.729821104E0,-1.023069430E1,2.473755798E0,1.198404871E1
1.589477292E1,5.157762269E0,-1.119863770E1,3.504207104E0,1.281762324E1
1.590469492E1,4.576907467E0,-1.155571196E1,3.771317271E0,1.298866409E1
1.591461592E1,3.957677682E0,-1.093644037E1,2.386398396E0,1.187281929E1
1.592453792E1,3.631969059E0,-9.811045482E0,2.442344556E0,1.074303773E1
1.593445992E1,4.212711886E0,-9.734167460E0,2.949582328E0,1.100913228E1
1.594438192E1,5.688614021E0,-1.076471232E1,3.413861775E0,1.264491254E1
1.595430392E1,7.348911610E0,-1.271559606E1,2.795979481E0,1.495026375E1
1.596422492E1,8.336268936E0,-1.417383551E1,1.467469865E0,1.650892064E1
1.597414692E1,8.020111740E0,-1.454500741E1,5.591178139E-1,1.661902661E1
1.598406892E1,6.429642770E0,-1.359544999E1,4.279191220E-1,1.504525445E1
1.599399092E1,4.506669251E0,-1.241374057E1,2.576043481E-1,1.320898871E1
1.600391192E1,3.130969389E0,-1.154922506E1,-3.579589774E-1,1.197145369E1
1.601383392E1,1.773090379E0,-1.080127262E1,-7.588785446E-1,1.097211176E1
1.602375592E1,6.752589753E-1,-9.824715103E0,-1.272789744E0,9.929803385E0
1.603367792E1,-2.849041209E-2,-8.457327935E0,-1.723616502E0,8.631225947E0
1.604359892E1,-5.052611205E-1,-7.196098137E0,-1.915214556E0,7.463723199E0
1.605352092E1,-1.057836302E0,-6.417712696E0,-1.834464508E0,6.758055484E0
1.606344292E1,-1.674040153E0,-5.961162098E0,-1.612690290E0,6.398330561E0
1.607336492E1,-2.067314230E0,-5.719147596E0,-1.443971075E0,6.250399173E0
1.608328592E1,-2.163525194E0,-5.919671425E0,-1.382014416E0,6.452388309E0
1.609320792E1,-1.744378503E0,-6.748537633E0,-1.268377435E0,7.084800481E0
1.610312992E1,-1.039871317E0,-7.782168070E0,-8.335906117E-1,7.895463605E0
1.611305192E1,-5.973063813E-1,-8.415716810E0,2.686459377E-2,8.436929894E0
1.612297292E1,-3.274698043E-1,-8.643538365E0,6.981897086E-1,8.677871905E0
1.613289492E1,-2.276086434E-1,-8.581171378E0,7.935021012E-1,8.620786130E0
1.614281692E1,-4.544256469E-1,-8.274561515E0,4.666544406E-1,8.300158872E0
1.615273892E1,-1.012183727E0,-7.738631456E0,-1.366611242E-1,7.805742052E0
1.616266092E1,-9.538326082E-1,-6.357815573E0,-7.827018553E-1,6.476437115E0
1.617258192E1,4.705385998E-2,-4.093043940E0,-9.762588729E-1,4.208123590E0
1.618250392E1,7.620586259E-1,-8.792750537E-1,-7.636371548E-1,1.391761357E0
1.619242592E1,1.485784222E0,3.244486064E0,-4.488394363E-1,3.596623613E0
1.620234792E1,1.925113746E0,7.526492718E0,-8.574729793E-1,7.815971820E0
1.621226892E1,1.671988512E0,1.196052289E1,-1.781039668E0,1.220744673E1
1.622219092E1,1.327147653E0,1.668087366E1,-1.321643961E0,1.678569658E1
1.623211292E1,1.003520785E0,2.132710864E1,1.446901699E0,2.139967620E1
1.624203492E1,3.668617652E-1,2.723562884E1,7.451087025E0,2.823885203E1
1.625195592E1,-6.239831333E-1,3.349927852E1,1.277700352E1,3.585865077E1
1.626187792E1,-2.402566094E0,3.805547573E1,1.080622872E1,3.963289210E1
1.627179992E1,-6.951480455E0,3.968103910E1,5.276719193E0,4.062944388E1
1.628172192E1,-1.237581670E1,3.694056607E1,9.374941720E-1,3.896979800E1
1.629164292E1,-1.362369321E1,2.880626581E1,-2.777282424E0,3.198623555E1
1.630156492E1,-1.221908442E1,1.891355110E1,-4.019251494E0,2.287319002E1
1.631148692E1,-1.028070086E1,9.875254927E0,-3.056044337E0,1.457919329E1
1.632140892E1,-6.822375687E0,3.005878150E0,-1.602608374E0,7.625514217E0
1.633132992E1,-2.356776256E0,-1.026397431E0,1.165489682E-1,2.573221652E0
1.634125192E1,5.303263798E-1,-3.505426249E0,1.374648825E0,3.802488481E0
1.635117392E1,8.093078560E-1,-5.374225023E0,1.697541429E0,5.693761560E0
1.636109592E1,5.351460935E-1,-7.066451917E0,1.097807795E0,7.171213705E0
1.637101692E1,7.208282273E-1,-8.636256827E0,7.540809772E-1,8.699032328E0
1.638093892E1,1.554245615E0,-1.011097841E1,5.417287793E-1,1.024407311E1
1.639086092E1,2.686961653E0,-1.122488001E1,3.172547185E-1,1.154635634E1
1.640078292E1,3.729849987E0,-1.213654396E1,7.625353932E-2,1.269697975E1
1.641070492E1,4.308074711E0,-1.282041676E1,5.626728845E-1,1.353658725E1
1.642062592E1,4.493887530E0,-1.333734454E1,1.637278855E0,1.416899666E1
1.643054792E1,4.457762847E0,-1.361629648E1,2.562741065E0,1.455482124E1
1.644046992E1,4.496554737E0,-1.350335751E1,2.849925892E0,1.451488017E1
1.645039192E1,4.512900629E0,-1.301395843E1,2.343555847E0,1.397217378E1
1.646031292E1,4.228688233E0,-1.256673648E1,1.192076533E0,1.331261493E1
