"Time (s)","Linear Acceleration x (m/s^2)","Linear Acceleration y (m/s^2)","Linear Acceleration z (m/s^2)","Absolute acceleration (m/s^2)"
2.905725001E-2,-1.607052404E-1,1.852630346E-1,-9.871175909E-1,1.017128165E0
3.897825000E-2,-3.593640268E-2,8.827351436E-2,-8.438947213E-1,8.492596417E-1
4.889924999E-2,5.109589398E-2,-9.201690182E-2,-3.646575111E-1,3.795431478E-1
5.882024998E-2,3.023441724E-1,-2.318415159E-1,1.762917978E-1,4.198110111E-1
6.874124997E-2,5.039060283E-1,-3.343648410E-1,5.004251808E-1,7.849499944E-1
7.866591669E-2,5.382924072E-1,-4.054905184E-1,6.957859182E-1,9.686585157E-1
8.858691668E-2,4.117044275E-1,-4.214458157E-1,5.483337575E-1,8.048521733E-1
9.850791667E-2,2.420014916E-1,-3.533889033E-1,2.271426934E-1,4.848115532E-1
1.084289167E-1,1.427721955E-1,-2.638094133E-1,-2.870982885E-2,3.013362916E-1
1.183489166E-1,-1.348660290E-3,-1.530011684E-1,-2.397083598E-1,2.843787513E-1
1.282699166E-1,-9.526079088E-2,-2.710125983E-2,-4.834051055E-1,4.934466461E-1
1.381909166E-1,-1.228955361E-1,3.380480021E-2,-7.271030205E-1,7.381902734E-1
1.481119166E-1,-1.578954341E-1,9.621447176E-3,-8.222079831E-1,8.372869925E-1
1.580329166E-1,-3.856376132E-1,-5.684663057E-2,-5.584108490E-1,6.810070370E-1
1.679539166E-1,-4.348970430E-1,-8.041544124E-2,-3.886679327E-1,5.887825092E-1
1.778749167E-1,-1.697078329E-1,-1.047423434E-1,-4.829800129E-1,5.225336352E-1
1.877959167E-1,-1.229891646E-1,-2.439993390E-1,-3.964318657E-1,4.814771398E-1
1.977169167E-1,-1.317167187E-1,-3.551157323E-1,-3.622309166E-1,5.240875063E-1
2.076379167E-1,-1.473933962E-1,-3.821301609E-1,-4.551987219E-1,6.123349978E-1
2.175589167E-1,-9.686263561E-2,-3.048191527E-1,-7.469490552E-1,8.125453692E-1
2.274799166E-1,-3.225577046E-1,-1.899658039E-1,-8.128559464E-1,8.949107604E-1
2.374009166E-1,-3.446291895E-1,-7.204354405E-2,-1.110642945E0,1.165112571E0
2.473219166E-1,-1.778354627E-1,3.245204687E-2,-1.192929642E0,1.206548680E0
2.572429166E-1,-1.817104125E-1,-8.293325230E-2,-1.055069253E0,1.073809912E0
2.671639166E-1,-3.774947807E-1,-4.358688502E-1,-6.733770490E-1,8.865216377E-1
2.770849166E-1,-2.573774761E-1,-8.158754486E-1,-3.584799278E-1,9.275795230E-1
2.870059166E-1,-1.778910112E-1,-9.258804323E-1,-4.256077176E-1,1.034428207E0
2.969259167E-1,-4.571660176E-1,-8.471446037E-1,-8.363196534E-1,1.275180501E0
3.068469167E-1,-9.799363330E-1,-8.545878169E-1,-1.398728244E0,1.909721512E0
3.167679167E-1,-1.927831386E0,-1.001958994E0,-2.747148213E0,3.502467556E0
3.266889167E-1,-2.940005465E0,-9.759184188E-1,-3.063771433E0,4.356919128E0
3.366099166E-1,-2.879605774E0,-1.322083526E0,-1.685924181E0,3.589202503E0
3.465309166E-1,-2.182424710E0,-2.710804552E0,-8.417540556E-1,3.580501198E0
3.564519166E-1,-1.835624011E0,-2.403459987E0,-5.278474528E-1,3.069976930E0
3.663729166E-1,-2.382972513E0,-1.242459067E0,-8.697774214E-1,2.824672599E0
3.762939166E-1,-1.926827127E0,-1.916499774E0,-1.221923060E0,2.979719807E0
3.862149166E-1,-1.709189082E0,-1.891390953E0,-1.482386112E0,2.948924489E0
3.961359167E-1,-1.694030761E0,-1.223556480E0,-1.999361837E0,2.892106228E0
4.060569167E-1,-1.817466068E0,-1.720295284E0,-2.013509760E0,3.211980748E0
4.159779167E-1,-1.584828746E0,-2.416420925E0,-1.698577555E0,3.352005065E0
4.258989167E-1,-1.859184197E0,-3.356521932E0,-9.437259883E-1,3.951382556E0
4.358199167E-1,-1.949218454E0,-4.120427036E0,3.189264375E-1,4.569363808E0
4.457399166E-1,-1.627757834E0,-4.745226879E0,2.076974854E0,5.429603875E0
4.556609166E-1,-1.773116106E0,-4.270026294E0,3.301596989E0,5.681338571E0
4.655819166E-1,-1.600645464E0,-2.557851039E0,3.324275415E0,4.489484923E0
4.755029166E-1,-9.801097029E-1,-2.116295625E0,3.107015685E0,3.884954140E0
4.854239166E-1,-2.603706658E-1,-2.969776856E0,2.948370200E0,4.192881383E0
4.953449166E-1,3.891696239E-1,-3.456785016E0,3.530611961E0,4.956413669E0
5.052659167E-1,1.134827029E0,-2.831463309E0,4.318859023E0,5.287490909E0
5.151869167E-1,2.313288905E0,-1.014956185E0,4.717588845E0,5.351363015E0
5.251079167E-1,2.917203371E0,6.157761276E-2,4.715433853E0,5.545194653E0
5.350289167E-1,2.608668605E0,-5.461159086E-1,4.352997699E0,5.104114365E0
5.449499167E-1,2.573497603E0,-9.190413827E-1,4.053053663E0,4.888227794E0
5.548709166E-1,2.661214024E0,-4.601647621E-1,3.897657475E0,4.741892605E0
5.647919166E-1,4.434956952E0,-7.016366422E-2,2.547450011E0,5.115004170E0
5.747129166E-1,7.610171637E0,2.347029678E0,-2.958065176E0,8.495493525E0
5.846339166E-1,3.774711580E0,5.112928743E0,-1.506479272E0,6.531459840E0
5.945549166E-1,4.856827714E0,2.425116904E0,4.460744342E-1,5.446921134E0
6.044749166E-1,4.811876659E0,1.197136129E0,1.567813641E0,5.200512619E0
6.143959167E-1,5.361894999E0,2.878999418E0,2.305935154E0,6.508140485E0
6.243169167E-1,6.755377706E0,4.788618189E0,1.467437705E-1,8.281758620E0
6.342379167E-1,5.586325169E0,5.318953047E0,-1.323637716E0,7.826257549E0
6.441589167E-1,4.154798723E0,3.824822218E0,-3.527885404E0,6.658647975E0
6.540799167E-1,2.128638512E0,1.726100984E0,-5.246769170E0,5.919384533E0
6.640009166E-1,7.727972567E-1,2.581949168E-1,-5.337767633E0,5.399596607E0
6.739219166E-1,5.411071837E-2,4.867497128E-1,-3.092320463E0,3.130862357E0
6.838429166E-1,-1.101130110E-1,3.891743016E-1,-9.363503104E-1,1.019967360E0
6.937639166E-1,-4.450312909E-1,-1.110952263E0,1.973531762E-1,1.212936955E0
7.036849166E-1,-4.649916387E-1,-2.407957665E0,6.454443151E-1,2.535956566E0
7.136059166E-1,7.177109304E-1,-3.416014720E0,1.154896720E0,3.676690357E0
7.235269167E-1,1.866420711E0,-2.476579419E0,1.069348739E0,3.280316847E0
7.334479167E-1,1.540516791E0,-1.460805793E0,8.209256887E-2,2.124590488E0
7.433679167E-1,9.457286596E-1,-1.247219285E0,1.861320770E-1,1.576262602E0
7.532889167E-1,2.368537492E-1,-1.802491348E0,2.093698475E0,2.772841154E0
7.632099167E-1,8.893878132E-2,1.962006315E0,-1.734743169E-1,1.971667372E0
7.731309166E-1,-1.834558064E-1,4.713700154E0,-3.956674884E0,6.156939281E0
7.830519166E-1,-5.832085982E-1,4.262217922E0,-2.750192859E0,5.105898025E0
7.929729166E-1,-3.152476618E-1,3.459734936E0,-1.759052383E0,3.894022625E0
8.028939166E-1,-1.276214458E0,4.888901446E0,-1.161362278E0,5.184480980E0
8.128149166E-1,-2.585931707E0,6.138694675E0,-1.684351864E0,6.870782802E0
8.227359166E-1,-2.685106916E0,4.733057946E0,-8.093859163E-1,5.501521811E0
8.326569167E-1,-2.051975376E0,4.503661151E0,-2.990850806E-1,4.958126520E0
8.425779167E-1,-2.161848359E0,4.249730608E0,6.919185698E-2,4.768499353E0
8.524989167E-1,-2.273261790E0,3.490372592E0,1.490361714E-1,4.168048918E0
8.624199167E-1,-2.437006633E0,3.270449456E0,-2.570646501E-1,4.086676303E0
8.723409167E-1,-2.144878277E0,2.921750166E0,-4.080075985E-1,3.647409636E0
8.822609166E-1,-1.571671926E0,1.196343246E0,7.566852540E-1,2.115174314E0
8.921819166E-1,-8.341956523E-1,-2.395021870E0,3.240938266E0,4.115299866E0
9.021029166E-1,1.688630565E0,-6.644320954E0,5.685554173E0,8.906402213E0
9.120239166E-1,3.710890683E0,-5.656772423E0,5.745171214E0,8.875628214E0
9.219449166E-1,5.067992306E0,-5.128461871E0,3.234719752E0,7.902472971E0
9.318659166E-1,5.236746458E0,-4.901943076E0,4.539465407E-1,7.187393606E0
9.417869167E-1,4.659381275E0,-4.746884272E0,-1.360850565E0,6.789304708E0
9.517079167E-1,3.485267973E0,-4.221709582E0,-2.227960487E0,5.910476509E0
9.616289167E-1,2.616788049E0,-4.114139525E0,-2.840701910E0,5.642987778E0
9.715499167E-1,1.908582644E0,-3.868691538E0,-3.009242054E0,5.259752814E0
9.814709167E-1,1.741435600E0,-3.113862775E0,-2.621788295E0,4.427472551E0
9.913919166E-1,1.694157937E0,-2.478076306E0,-1.282229196E0,3.264221960E0
1.001312917E0,1.365547341E0,-1.702283521E0,-4.395518652E-1,2.226138937E0
1.011233917E0,1.768064112E0,-1.210768912E0,7.623219699E-2,2.144253579E0
1.021153917E0,1.848649853E0,-5.855126935E-1,1.465657813E0,2.430737382E0
1.031074917E0,1.562500276E0,8.947233975E-2,2.284563581E0,2.769231512E0
1.040995917E0,1.064809545E0,1.525195332E0,2.189499257E0,2.872968354E0
1.050916917E0,1.117959566E0,1.555654063E0,2.310284021E0,3.001217322E0
1.060837917E0,-1.272596201E0,4.412356294E0,1.906412158E0,4.972202376E0
1.070758917E0,-4.232693576E0,6.507951606E0,-2.172097358E0,8.061459914E0
1.080679792E0,-5.363640393E0,5.411144342E0,-2.604367101E0,8.051822735E0
1.090600792E0,-5.237634650E0,4.198148226E0,1.280037367E-1,6.713691251E0
1.100521792E0,-4.984929684E0,3.172785752E0,1.813227421E-1,5.911765499E0
1.110442792E0,-4.863126335E0,2.880347201E0,-5.860921526E-1,5.682420414E0
1.120363792E0,-4.827408033E0,2.452440358E0,-8.285796940E-1,5.477670704E0
1.130284792E0,-4.387618186E0,1.804011040E0,-1.121617000E0,4.874799880E0
1.140205792E0,-3.112322326E0,1.579055205E0,-1.092199950E0,3.656892989E0
1.150125792E0,-2.475990604E0,1.662623026E0,-1.903198528E0,3.537938586E0
1.160046792E0,-1.847581567E0,1.369840075E0,-2.652522138E0,3.510825141E0
1.169967792E0,-1.035094580E0,1.001028702E0,-2.032767565E0,2.491108834E0
1.179888792E0,-8.506462088E-1,1.829061096E0,-1.832465638E0,2.725251141E0
1.189809792E0,-9.788589835E-1,1.266281793E0,-1.950979636E0,2.523480934E0
1.199730792E0,-1.329277940E0,6.912040401E-1,-1.580047477E0,2.177451009E0
1.209651792E0,-1.362731907E0,8.108649695E-1,-1.303173923E0,2.052511272E0
1.219572792E0,-1.579177119E0,3.701556480E-1,-2.289203054E0,2.805577695E0
1.229493792E0,-2.428975190E0,7.698900211E-1,-2.645302873E0,3.672911435E0
1.239414792E0,-2.673846349E0,1.497102969E0,-1.485152430E0,3.405355978E0
1.249335792E0,-2.341055870E0,2.250768136E0,-4.527645260E-2,3.247853098E0
1.259256792E0,-7.503734770E-1,2.232170482E0,2.802693254E-1,2.371538807E0
1.269177792E0,-1.640851504E-1,8.532783329E-1,2.049117988E0,2.225734121E0
1.279097792E0,-1.282879114E-1,-2.436908984E-1,3.421430996E-1,4.392094521E-1
1.289018792E0,4.819327766E-1,-2.401556718E-1,-3.439343941E-1,6.389247337E-1
1.298939792E0,-1.777451232E-1,3.350086194E-1,-7.522134496E-1,8.424067769E-1
1.308860792E0,1.547921705E-1,2.231981617E-1,-1.089550284E0,1.122897082E0
1.318781792E0,1.078366607E0,-5.453282887E-1,-9.333340243E-2,1.212010151E0
1.328702792E0,2.828760433E0,-1.408521745E0,5.933117098E-1,3.215250827E0
1.338623792E0,3.912700899E0,-2.102769846E0,1.352526762E-1,4.444002997E0
1.348544792E0,4.919584125E0,-3.037177711E0,-4.814231917E-2,5.781788140E0
1.358465792E0,6.132561530E0,-3.177010950E0,1.204020786E0,7.010804202E0
1.368386792E0,6.604290916E0,-2.808340495E0,1.207099711E0,7.277398199E0
1.378307792E0,5.243726864E0,-2.826488498E0,8.272131997E-1,6.014149177E0
1.388228792E0,4.547007145E0,-2.455087393E0,6.808497906E-3,5.167472733E0
1.398149792E0,4.712412012E0,-8.747399533E-1,-6.695219797E-1,4.839447969E0
1.408069792E0,4.705040135E0,-1.082106194E0,-5.085920234E-1,4.854587761E0
1.417990792E0,4.211883336E0,-3.080120248E-1,-3.220055813E-1,4.235389030E0
1.427911792E0,4.011753317E0,2.228480889E0,-2.091563657E0,5.043305491E0
1.437832792E0,4.551413607E0,1.015911620E0,-2.154089688E0,5.136880826E0
1.447753792E0,3.743758467E0,-2.407585782E0,-4.995071679E-1,4.479029378E0
1.457674792E0,2.519159428E0,-1.477905391E0,6.640846539E-1,2.995225700E0
1.467595792E0,2.087464759E-1,2.256740482E0,9.034304498E-2,2.268174279E0
1.477516792E0,-2.773837537E0,5.636677882E0,-1.024665705E-1,6.283057506E0
1.487437792E0,-3.425393362E0,4.751581340E0,2.057760319E0,6.208479882E0
1.497358792E0,-3.634269061E0,5.607236567E0,3.884996499E0,7.729308592E0
1.507279792E0,-3.490338386E0,7.253262856E0,3.302933078E0,8.700669573E0
1.517199792E0,-3.212688321E0,7.900115181E0,9.734853192E-1,8.583755576E0
1.527120792E0,-2.525521783E0,8.010022954E0,-1.894253019E-1,8.400869595E0
1.537041792E0,-1.559547432E0,6.348070019E0,6.979294344E-1,6.573985599E0
1.546962792E0,-1.986707293E0,6.159225419E0,1.827040883E0,6.724666684E0
1.556883792E0,-1.902418948E0,4.526747128E0,2.117544590E0,5.347394927E0
1.566804792E0,-1.313203652E0,2.924139338E0,3.223705645E0,4.546138227E0
1.576725792E0,-9.965509770E-1,1.918782527E0,2.824367713E0,3.556949988E0
1.586646792E0,-1.064893380E0,1.937501219E0,-5.135375253E-1,2.269720175E0
1.596567792E0,-1.570338907E0,1.375934043E0,-1.764974443E0,2.733915426E0
1.606488792E0,-2.201622874E0,-5.095053220E-1,1.588291467E0,2.762138435E0
1.616409792E0,-2.045910936E0,-1.702175932E0,4.629058199E0,5.339600572E0
1.626330792E0,-1.813810681E0,-2.955831832E0,2.158368680E0,4.084777395E0
1.636250792E0,-1.682683654E0,-5.076656710E0,-3.887457592E0,6.611822302E0
1.646171792E0,-1.273095407E0,-5.418124164E0,-4.771173021E0,7.330820784E0
1.656092792E0,-1.012093169E0,-5.366457582E0,-3.046337959E0,6.253269106E0
1.666013792E0,-1.359713867E0,-6.385017990E0,-3.633951703E-1,6.538297376E0
1.675934792E0,-2.388721641E0,-1.439914510E1,2.888932083E0,1.487908933E1
1.685855792E0,-1.863559669E0,-2.268641788E1,5.420244364E0,2.339926195E1
1.695776792E0,-9.910088398E-1,-1.043277291E1,3.239923920E-1,1.048474225E1
1.705697792E0,5.389628635E-1,1.601969274E0,-4.469882956E0,4.778769733E0
1.715618792E0,-5.776800558E-1,1.994373577E0,-3.195991012E0,3.811246353E0
1.725539792E0,-1.100164004E0,-1.114286345E-1,-1.633574644E0,1.972648801E0
1.735460792E0,-1.238627532E0,-3.965757072E-2,-6.851493213E-1,1.416051016E0
1.745381792E0,-1.119455211E0,5.466614538E-1,4.223502338E-2,1.246516150E0
1.755301792E0,-8.854377267E-1,6.456974995E-1,3.561293471E-1,1.152281797E0
1.765222792E0,-4.801374621E-1,6.254035681E-1,1.951683275E-1,8.122513660E-1
1.775143792E0,-6.679522946E-2,2.522553152E-1,-1.953092819E-1,3.259448762E-1
1.785064792E0,-9.348674566E-2,-6.056674612E-1,-2.915328534E-1,6.786488413E-1
1.794985792E0,-3.263750593E-1,-1.128463504E0,-1.511803820E-1,1.184401143E0
1.804906792E0,-3.824510269E-1,-8.638015670E-1,-1.429562731E-1,9.554362517E-1
1.814827792E0,-2.927651907E-1,-4.026813698E-1,-1.741903085E-1,5.274523732E-1
1.824748792E0,3.339705925E-1,7.067430156E-1,4.295282757E-1,8.919173653E-1
1.834669792E0,1.034923257E0,9.205160505E-1,1.331125660E0,1.921018342E0
1.844590792E0,3.395339258E-2,-2.782713318E-1,-3.684891915E-1,4.630032951E-1
1.854511792E0,1.032083995E-1,-7.973970777E-1,-8.452387769E-2,8.084790406E-1
1.864431792E0,3.642824853E-1,-1.118706840E0,6.017650294E-1,1.321486994E0
1.874352792E0,9.426793367E-2,-1.296356946E0,3.150520724E-1,1.337417505E0
1.884273792E0,-1.866450971E-1,-1.203312542E0,1.193475004E-1,1.223536388E0
1.894194792E0,-2.989481096E-1,-8.260940427E-1,4.522817653E-2,8.796856981E-1
1.904115792E0,-1.753411136E-1,-6.774964124E-1,-2.598549414E-1,7.465055160E-1
1.914036792E0,1.535428398E-1,-7.949622971E-1,-4.507899213E-1,9.266887345E-1
1.923957792E0,5.836796645E-1,-2.265689061E0,-1.767145332E-1,2.346328387E0
1.933878792E0,2.918743674E-1,-1.186115296E0,-4.155729454E-2,1.222205855E0
1.943799792E0,-8.677611552E-2,1.095584026E0,-3.321060250E-1,1.148097933E0
1.953720792E0,8.069258465E-1,2.669949179E0,-5.644605976E-2,2.789792842E0
1.963641792E0,7.797571244E-1,1.652510267E0,1.115964496E-1,1.830646094E0
1.973561792E0,-1.173390001E-2,1.108753710E0,-4.116784805E-1,1.182772863E0
1.983482792E0,1.112486865E-1,4.255129927E-1,-3.713561179E-1,5.756239602E-1
1.993403792E0,-6.660073645E-2,-2.020838660E-1,-4.334254450E-1,4.828365804E-1
2.003324792E0,-2.856022784E-1,-3.491506952E-1,-2.746308553E-1,5.281069741E-1
2.013245792E0,-2.840132976E-1,-4.167035776E-1,-1.411768923E-1,5.236757964E-1
2.023166792E0,-3.831393173E-1,-9.882653993E-1,-4.894394320E-1,1.167482417E0
2.033087792E0,-2.508106144E-1,-1.828510873E0,-1.121452693E0,2.159632867E0
2.043008792E0,-1.020570827E-1,-2.524161136E-1,4.651114700E-1,5.389417613E-1
2.052929792E0,-5.544441710E-1,7.834520531E-1,3.875674868E-1,1.035091308E0
2.062850792E0,-4.186011453E-1,-1.627093005E-1,-9.307532094E-2,4.586548274E-1
2.072771792E0,-5.292358741E-1,4.380850911E-1,-2.087725325E-1,7.180495302E-1
2.082688250E0,3.388896357E-1,5.799398292E0,-8.141417491E-1,5.866062864E0
2.092609250E0,6.640177032E-1,1.119569655E1,-1.349092399E0,1.129622022E1
2.102530250E0,2.167840439E0,2.022422086E0,1.511629207E0,3.327874115E0
2.112451250E0,1.121644628E0,-3.963283700E-1,1.674471824E0,2.054025009E0
2.122372250E0,-5.426485097E-1,-1.058426140E0,2.122796559E0,2.433310200E0
2.132293250E0,-1.412024958E0,-2.763039776E0,2.008908001E0,3.696473271E0
2.142214250E0,-1.762993845E0,-4.446012282E0,9.973981655E-1,4.885690904E0
2.152135250E0,-1.848047298E0,-3.942727228E0,-7.849360764E-1,4.424534038E0
2.162056250E0,-1.236481750E0,-2.637994146E0,-9.894974077E-1,3.076849907E0
2.171977250E0,-5.734995890E-1,-1.563530263E0,2.214446000E-1,1.680049515E0
2.181898250E0,-6.322002254E-1,-8.749241406E-1,6.911549234E-1,1.281742761E0
2.191818250E0,-7.018405639E-1,-1.418768406E-1,5.390629971E-1,8.962690053E-1
2.201739250E0,-8.293953806E-2,-1.981650621E-1,2.608817124E-1,3.379461890E-1
2.211660250E0,6.624668755E-1,-4.454022968E-1,-1.304887851E-1,8.088713681E-1
2.221581250E0,7.334621599E-1,-2.982150149E-1,-1.165841246E-1,8.003066870E-1
2.231502250E0,4.942696707E-1,-5.417597330E-1,9.357999047E-2,7.392992156E-1
2.241423250E0,3.717118844E-2,-5.190830612E-1,2.764376450E-1,5.892764150E-1
2.251344250E0,-1.019920617E0,-2.919590789E-1,3.862389994E-1,1.129007853E0
2.261265250E0,-1.649717198E0,-4.759838194E-1,3.501698649E-1,1.752354520E0
2.271186250E0,-1.791867835E0,-1.336963520E0,5.491278094E-1,2.302130131E0
2.281107250E0,-1.580112089E0,-1.981438951E0,4.892996836E-1,2.581137097E0
2.291028250E0,-8.067198783E-1,-1.720553731E0,-4.808352542E-1,1.960179748E0
2.300948250E0,1.025549731E-1,-3.553949368E-1,-1.881391922E0,1.917409359E0
2.310869250E0,2.908801214E-1,3.809641092E0,-2.081958436E0,4.351152425E0
2.320790250E0,-3.803362352E-1,7.485376267E0,-2.502021824E0,7.901621778E0
2.330711250E0,-5.723909569E-1,7.838754500E0,-2.900442912E0,8.377724786E0
2.340632250E0,-7.234730691E-2,7.398793622E0,-2.383229206E0,7.773491020E0
2.350553250E0,-5.833364329E-1,8.255369200E0,-2.129357135E0,8.545499624E0
2.360474250E0,-1.336670136E0,7.858974171E0,-1.711232100E0,8.153433472E0
2.370395250E0,-1.943128579E0,8.473977882E0,5.819382906E-2,8.694103538E0
2.380316250E0,-2.250239840E0,9.991422729E0,-3.314757317E-1,1.024704756E1
2.390237250E0,-1.773770702E0,1.102866499E1,-1.669460468E-1,1.117164200E1
2.400157250E0,-1.004038410E0,1.120660512E1,2.852043754E0,1.160733583E1
2.410078250E0,1.509229071E0,6.186809658E0,4.053086992E0,7.548635658E0
2.419999250E0,6.020071042E0,8.399115980E-1,2.586498302E0,6.605806560E0
2.429920250E0,7.922716423E0,-2.981464856E0,-5.478732893E-1,8.482849365E0
2.439841250E0,6.621019800E0,-7.636702209E0,-3.834397618E0,1.081016785E1
2.449762250E0,4.292602394E0,-1.123677909E1,-2.698140945E0,1.232767635E1
2.459683250E0,2.029205295E0,-1.317242148E1,-4.186150324E-1,1.333437664E1
2.469604250E0,-6.562591790E-1,-1.219066579E1,9.092627916E-1,1.224213083E1
2.479525250E0,-3.371668852E0,-8.834648176E0,1.696577223E0,9.607160534E0
2.489446250E0,-4.890299515E0,-8.694346576E0,2.353871505E0,1.024926352E1
2.499367250E0,-4.254505445E0,-1.100173856E1,3.443015408E0,1.228793811E1
2.509287250E0,-1.485294810E0,-1.363265349E1,5.674367280E0,1.484094962E1
2.519208250E0,1.342084658E0,-1.762785597E1,7.808192273E0,1.932641622E1
2.529129250E0,2.824972315E0,-2.374181458E1,7.214842556E0,2.497415026E1
2.539050250E0,4.275214528E0,-2.924720201E1,4.220000440E0,2.985774084E1
2.548971250E0,6.291007626E0,-2.756656955E1,2.073722925E0,2.835124090E1
2.558892250E0,5.330241097E0,-2.135651078E1,-5.723764850E-1,2.201907441E1
2.568813250E0,3.035771748E0,-1.690165517E1,-1.641547322E0,1.725040681E1
2.578734250E0,4.257557984E-1,-1.277681875E1,-1.256418271E0,1.284550319E1
2.588655250E0,-1.714791738E0,-8.064515496E0,3.795304158E-1,8.253542526E0
2.598576250E0,-2.418528116E0,-3.893911164E0,2.643755992E0,5.291622449E0
2.608496250E0,-2.398103060E0,-5.597136086E-1,3.253824068E0,4.080630916E0
2.618417250E0,-1.567180241E0,2.582297662E0,2.158642330E0,3.712687953E0
2.628338250E0,8.134003222E-2,5.259350039E0,1.387343715E0,5.439862280E0
2.638259250E0,1.633044301E0,6.930035207E0,4.377430290E-1,7.133291009E0
2.648180250E0,2.781193919E0,9.313164425E0,6.736863667E-1,9.742890974E0
2.658101250E0,3.903175785E0,1.205584537E1,9.983945310E-1,1.271121475E1
2.668022250E0,4.287695995E0,1.378936354E1,2.862983894E-1,1.444343625E1
2.677943250E0,3.439463809E0,1.489169233E1,-9.447124135E-1,1.531289957E1
2.687864250E0,2.172975318E0,1.555197279E1,-2.266032293E0,1.586570458E1
2.697785250E0,1.013907121E0,1.620250009E1,-3.129448528E0,1.653307185E1
2.707705250E0,2.883990017E-1,1.681091808E1,-3.299401360E0,1.713406519E1
2.717626250E0,-6.031870723E-2,1.595206501E1,-2.773122715E0,1.619142446E1
2.727547250E0,-3.042548963E-1,1.289958221E1,-1.487473190E0,1.298862459E1
2.737468250E0,-7.514897105E-1,1.080425587E1,3.526221506E-1,1.083609820E1
2.747389250E0,-1.382638753E0,9.509102867E0,1.846566491E0,9.784913646E0
2.757310250E0,-1.858760274E0,8.543932800E0,2.612428365E0,9.125708707E0
2.767231250E0,-2.222121457E0,7.836352463E0,2.496036029E0,8.519180686E0
2.777152250E0,-2.646439864E0,6.923012701E0,1.282673292E0,7.521768381E0
2.787073250E0,-2.602259764E0,6.141971455E0,-4.525569499E-1,6.685834056E0
2.796994250E0,-2.003869748E0,5.860462520E0,-1.966898680E0,6.498400213E0
2.806914250E0,-1.647006283E0,6.142219961E0,-2.657089398E0,6.891996795E0
2.816835250E0,-1.540639437E0,6.923483986E0,-2.519171707E0,7.526913476E0
2.826756250E0,-1.237007707E0,7.919588163E0,-2.466388307E0,8.386485320E0
2.836677250E0,-6.956618842E-1,9.042467576E0,-2.532144924E0,9.416046051E0
2.846598250E0,-2.124761224E-1,1.013311480E1,-2.405700494E0,1.041693604E1
2.856519250E0,-1.471875742E-2,1.097326028E1,-1.627950792E0,1.109337107E1
2.866440250E0,1.414997683E-1,1.149864547E1,-5.528909312E-1,1.151279976E1
2.876361250E0,2.848938882E-1,1.140300959E1,-3.021812544E-1,1.141056991E1
2.886282250E0,2.237894614E-1,1.114917143E1,-6.936195248E-1,1.117296797E1
2.896203250E0,-1.215798394E-1,1.129380816E1,-8.737272155E-1,1.132820743E1
2.906123250E0,-4.552024495E-1,1.175824548E1,5.807381496E-3,1.176705484E1
2.916044250E0,-8.645266948E-1,1.192144828E1,2.030016011E0,1.212391441E1
2.925965250E0,-9.030619656E-1,1.178193138E1,3.719724948E0,1.238813068E1
2.935886250E0,2.559435926E-1,1.160903389E1,3.983543717E0,1.227614742E1
2.945807250E0,1.589586040E0,8.916410378E0,3.953576737E0,9.882303720E0
2.955728250E0,2.065081033E0,1.724815181E0,3.757963985E0,4.621887103E0
2.965649250E0,1.175149721E0,-5.258762979E0,1.796014388E0,5.679897236E0
2.975570250E0,6.130758834E-1,-1.320309948E1,8.003194430E-1,1.324153349E1
2.985491250E0,-3.530738845E-1,-2.651441923E1,1.360078587E0,2.655162711E1
2.995412250E0,-1.709926124E0,-4.462185681E1,2.649269916E0,4.473312624E1
3.005332250E0,1.475939557E-1,-5.292821958E1,4.854843169E0,5.315061348E1
3.015253250E0,9.053522907E0,-3.509052575E1,4.409595823E0,3.650692824E1
3.025174250E0,1.539715723E1,-2.136345026E1,4.001612783E0,2.663611012E1
3.035095250E0,1.356678694E1,-2.034129381E1,5.057076724E0,2.496797883E1
3.045016250E0,1.006696408E1,-2.347535462E1,3.422118629E0,2.577104841E1
3.054937250E0,4.970252588E0,-2.476939256E1,1.617901767E0,2.531489334E1
3.064858250E0,3.075439259E0,-2.447844681E1,-2.449651529E-1,2.467210353E1
3.074779250E0,1.693403208E0,-2.155190602E1,-2.817331758E0,2.180113817E1
3.084700625E0,-2.182069784E-1,-1.690925070E1,-3.902908859E0,1.735520300E1
3.094621625E0,-2.010100541E0,-1.192424676E1,-3.496884636E0,1.258794531E1
3.104541625E0,-2.969821588E0,-7.126342024E0,-2.204606708E0,8.029002530E0
3.114462625E0,-4.194973773E0,-2.864508848E0,9.084765603E-1,5.160285414E0
3.124383625E0,-3.186303930E0,4.000138700E-1,4.421238799E0,5.464420953E0
3.134304625E0,-9.958699957E-1,4.419049017E0,7.576603357E0,8.827495097E0
3.144225625E0,-4.081088650E-1,8.070066842E0,7.334452030E0,1.091268612E1
3.154146625E0,6.090502216E-1,1.180347486E1,5.372114763E0,1.298278006E1
3.164067625E0,1.681882293E0,1.491967828E1,3.135962911E0,1.533818083E1
3.173988625E0,2.098072485E0,1.688181908E1,2.709061972E-1,1.701385064E1
3.183909625E0,1.985711658E0,1.780352270E1,-2.846368446E0,1.813864065E1
3.193830625E0,1.503032046E0,1.820536674E1,-4.961574150E0,1.892912311E1
3.203750625E0,1.392970344E0,1.844567094E1,-5.146530352E0,1.920077908E1
3.213671625E0,1.125085275E0,1.916569824E1,-4.149733281E0,1.964204908E1
3.223592625E0,3.065588455E-1,1.819551886E1,-2.869639195E0,1.842296703E1
3.233513625E0,-8.393026105E-1,1.301192827E1,-8.567019508E-1,1.306708248E1
3.243434625E0,-2.392608578E0,9.868762178E0,8.676021110E-1,1.019165228E1
3.253355625E0,-3.060948397E0,7.884306064E0,1.860415036E0,8.659840143E0
3.263276625E0,-3.083115484E0,6.008751417E0,2.003562477E0,7.044498369E0
3.273197625E0,-2.686823074E0,4.288556705E0,1.277962044E0,5.219571231E0
3.283118625E0,-2.508801378E0,2.986717409E0,4.062113339E-1,3.921679855E0
3.293038625E0,-2.284845271E0,2.779070503E0,-5.074237132E-1,3.633349638E0
3.302959625E0,-1.705340299E0,3.413873470E0,-9.896651497E-1,3.942353956E0
3.312880625E0,-8.699743263E-1,4.555127174E0,-1.472976773E0,4.865768127E0
3.322801625E0,-2.796142910E-1,6.118567389E0,-2.566099121E0,6.640776743E0
3.332722625E0,3.037591986E-2,7.739443050E0,-3.253441660E0,8.395521667E0
3.342643625E0,2.129305972E-1,9.044415284E0,-3.410210189E0,9.668315303E0
3.352564625E0,-2.427774902E-1,1.041555987E1,-2.879168403E0,1.080890554E1
3.362485625E0,-5.738567077E-1,1.160274579E1,-2.097891514E0,1.180483673E1
3.372406625E0,-7.977232061E-1,1.261821186E1,-1.039778200E0,1.268608574E1
3.382326625E0,-1.084076121E0,1.297389097E1,-1.356765262E-1,1.301981090E1
3.392247625E0,-1.637017777E0,1.327679545E1,1.939883228E-1,1.337874269E1
3.402168625E0,-2.156475352E0,1.343765937E1,5.934097968E-2,1.360972434E1
3.412089625E0,-2.373582177E0,1.341136795E1,-2.886297474E-1,1.362284808E1
3.422010625E0,-2.362397184E0,1.306221784E1,-5.637903605E-1,1.328609479E1
3.431931625E0,-2.233468272E0,1.267540230E1,-3.899266921E-1,1.287657745E1
3.441852625E0,-1.341864656E0,1.225665746E1,7.382127303E-1,1.235197195E1
3.451773625E0,1.060798502E0,9.757377983E0,3.376981047E0,1.037958186E1
3.461694625E0,2.715231771E0,4.219785263E0,4.542869071E0,6.768805702E0
3.471615625E0,3.217637989E0,-1.591429667E0,3.853222729E0,5.266229013E0
3.481535625E0,4.188071135E0,-6.689714059E0,4.426898904E0,9.049289912E0
3.491456625E0,4.518034484E0,-2.206816137E1,3.521265187E0,2.279946688E1
3.501377625E0,6.677900344E-1,-4.660475990E1,4.302986464E0,4.680774809E1
3.511298625E0,-1.268852521E0,-6.059051388E1,3.343187065E0,6.069594104E1
3.521219625E0,6.083974092E0,-3.580500873E1,-6.868504956E-2,3.631828890E1
3.531140625E0,1.297915814E1,-1.689949521E1,-7.995044142E-1,2.132347748E1
3.541061625E0,1.423818763E1,-1.809232136E1,1.206214954E0,2.305456644E1
3.550982625E0,1.373940727E1,-2.313032680E1,3.013049760E0,2.707142033E1
3.560903625E0,1.207590482E1,-2.559737701E1,4.998098198E0,2.874081023E1
3.570824625E0,8.159387739E0,-2.586492923E1,5.706023521E0,2.771513804E1
3.580744625E0,3.877566734E0,-2.353616567E1,4.770648526E0,2.432582384E1
3.590665625E0,3.201011431E-1,-1.906711535E1,2.398176443E0,1.922000528E1
3.600586625E0,-2.628348871E0,-1.464340903E1,2.685918510E-2,1.487744492E1
3.610507625E0,-4.559198882E0,-1.133573386E1,-1.812485409E0,1.235193345E1
3.620428625E0,-4.777510234E0,-7.748066524E0,-1.616706596E0,9.245046193E0
3.630349625E0,-3.923677877E0,-4.155572895E0,4.412784018E-2,5.715416121E0
3.640270625E0,-3.679690232E0,-1.552043992E-1,1.292405398E0,3.903142365E0
3.650191625E0,-2.585336168E0,3.968096543E0,2.283747017E0,5.257875399E0
3.660112625E0,-3.193233173E-1,7.544952378E0,3.409610265E0,8.285753794E0
3.670032625E0,1.519716199E0,1.049684786E1,3.434156876E0,1.114839835E1
3.679953625E0,2.289567628E0,1.324133326E1,2.306335396E0,1.363430267E1
3.689874625E0,2.059890167E0,1.492558864E1,6.313706517E-1,1.508028424E1
3.699795625E0,1.503101774E0,1.596055751E1,-9.649373478E-1,1.606019349E1
3.709716625E0,6.729181156E-1,1.683057642E1,-2.264475179E0,1.699555734E1
3.719637625E0,-8.681055562E-1,1.755254617E1,-3.411274382E0,1.790201880E1
3.729558625E0,-2.401342710E0,1.773325086E1,-3.584472418E0,1.825056370E1
3.739479625E0,-3.204383228E0,1.683633709E1,-2.390632950E0,1.730449203E1
3.749400625E0,-2.565601523E0,1.355163330E1,-4.740075336E-1,1.380049852E1
3.759320625E0,-2.040409437E0,1.022727602E1,1.151816699E0,1.049224128E1
3.769241625E0,-1.922138537E0,8.280025154E0,2.168417705E0,8.772426600E0
3.779162625E0,-1.791767116E0,7.068754551E0,2.263857713E0,7.635625190E0
3.789083625E0,-1.444350267E0,6.124364904E0,1.674651918E0,6.511409388E0
3.799004625E0,-9.068362702E-1,5.198921989E0,5.500721347E-1,5.306008031E0
3.808925625E0,-5.499291703E-1,4.669440824E0,-1.132789859E0,4.836249846E0
3.818846625E0,-5.754315821E-1,4.862379060E0,-2.860976545E0,5.670893971E0
3.828767625E0,-1.062795910E0,6.029556980E0,-3.396927069E0,7.001728789E0
3.838688625E0,-9.798189501E-1,7.252090489E0,-2.804387192E0,7.836928554E0
3.848608625E0,-5.897053664E-1,8.379137213E0,-2.468902025E0,8.755179613E0
3.858529625E0,-3.568631727E-1,9.267288340E0,-2.362782662E0,9.570408895E0
3.868450625E0,-4.488103464E-1,9.724027219E0,-2.214830564E0,9.983166357E0
3.878371625E0,-6.762056395E-1,1.017120824E1,-2.077021047E0,1.040311240E1
3.888292625E0,-6.751995530E-1,1.060799993E1,-1.889348813E0,1.079607317E1
3.898213625E0,-6.291638394E-1,1.108894394E1,-1.660525630E0,1.123022129E1
3.908134625E0,-8.368643946E-1,1.158032640E1,-1.544744328E0,1.171283640E1
3.918055625E0,-1.318061811E0,1.178546661E1,-1.650152085E0,1.197319974E1
3.927976625E0,-1.607186452E0,1.179625004E1,-1.879760549E0,1.205272015E1
3.937896625E0,-1.688761835E0,1.204269381E1,-1.192770086E0,1.221888257E1
3.947817625E0,-1.795616485E0,1.233875822E1,1.022023129E-1,1.246914745E1
3.957738625E0,-1.001366671E0,1.226297479E1,8.549002044E-1,1.233345614E1
3.967659625E0,1.908750460E-2,1.116330298E1,1.368340264E0,1.124686858E1
3.977580625E0,1.174859845E0,9.752351716E0,3.010331975E0,1.027378987E1
3.987501625E0,2.478738211E0,6.519756550E0,5.054431443E0,8.613863581E0
3.997422625E0,3.453851468E0,-1.043121638E0,5.926917295E0,6.938698821E0
4.007343625E0,4.118843902E0,-8.873756694E0,6.862316848E0,1.194988809E1
4.017264625E0,4.541629461E0,-1.984683922E1,7.078973145E0,2.155540039E1
4.027184625E0,3.980903407E0,-4.248138295E1,7.295216628E0,4.328666856E1
4.037105625E0,3.741485361E0,-6.470515275E1,5.764990352E0,6.506912186E1
4.047026625E0,9.476888802E0,-4.181964186E1,-1.721280247E0,4.291452752E1
4.056947625E0,1.193253694E1,-1.744938257E1,-5.042642287E0,2.173234068E1
4.066868625E0,9.132038734E0,-1.919256854E1,-4.144598548E0,2.165471116E1
4.076789625E0,6.872583974E0,-2.247655196E1,-1.258502364E0,2.353745157E1
4.086710625E0,6.517154539E0,-2.422081147E1,1.851004527E0,2.515049163E1
4.096631625E0,6.018129181E0,-2.402277797E1,4.243146644E0,2.512600314E1
4.106552625E0,4.662342305E0,-2.044752603E1,4.547035797E0,2.145959671E1
4.116473625E0,3.412587082E0,-1.579004100E1,3.288141961E0,1.648584311E1
4.126393625E0,2.321998771E0,-1.207332620E1,1.546908237E0,1.239152166E1
4.136314625E0,8.987310791E-1,-8.597029027E0,-4.262042798E-2,8.643983002E0
4.146235625E0,-1.792196302E0,-5.393992120E0,-6.381667243E-1,5.719648184E0
4.156156625E0,-3.621178315E0,-2.530515305E0,4.655289978E-1,4.442201858E0
4.166077625E0,-3.664610263E0,3.114080876E-1,1.871784362E0,4.126732373E0
4.175998625E0,-3.480052841E0,4.010818639E0,2.470622860E0,5.856740668E0
4.185919625E0,-2.608144110E0,7.731580299E0,2.727507416E0,8.603432241E0
4.195840625E0,-1.262554923E0,1.072339356E1,2.712076614E0,1.113286009E1
4.205761625E0,-7.356216098E-1,1.293524087E1,1.880358135E0,1.309188078E1
4.215681625E0,-9.962456062E-1,1.463705662E1,6.097804657E-1,1.468358825E1
4.225602625E0,-1.286261728E0,1.610019720E1,-5.055326506E-1,1.615940539E1
4.235523625E0,-1.582709715E0,1.697788181E1,-1.715818071E0,1.713760405E1
4.245444625E0,-2.020089339E0,1.712916799E1,-2.632205987E0,1.744756904E1
4.255365625E0,-2.127653257E0,1.634822790E1,-2.770864520E0,1.671733095E1
4.265286625E0,-1.944143364E0,1.426176828E1,-2.213737135E0,1.456291042E1
4.275207625E0,-1.771765107E0,1.188719062E1,-1.585487727E0,1.212263270E1
4.285128625E0,-1.763667444E0,9.780244104E0,-1.197433240E0,1.000987232E1
4.295048625E0,-1.915650320E0,8.757371959E0,-7.062326268E-1,8.992221322E0
4.304969625E0,-2.098046757E0,8.084971395E0,-9.427524269E-2,8.353289800E0
4.314890625E0,-1.769844297E0,7.565244555E0,6.007546306E-1,7.792700440E0
4.324811625E0,-8.580249564E-1,7.437461259E0,1.153641469E0,7.575151843E0
4.334732625E0,7.183304429E-2,7.437420328E0,1.045453507E0,7.510882382E0
4.344653625E0,3.052098928E-1,7.805994889E0,8.682779029E-2,7.812441894E0
4.354574625E0,5.541596308E-2,8.059222596E0,-1.091461300E0,8.132983927E0
4.364495625E0,-3.767435597E-1,8.151626730E0,-1.921687570E0,8.383545621E0
4.374416625E0,-6.497306165E-1,8.408130047E0,-2.214765660E0,8.719173567E0
4.384336625E0,-8.601461801E-1,8.654952714E0,-2.226295200E0,8.977998009E0
4.394257625E0,-8.003329647E-1,9.170358462E0,-2.049492209E0,9.430611088E0
4.404178625E0,-6.237292179E-1,9.680788229E0,-1.932936298E0,9.891559108E0
4.414099625E0,-6.765528180E-1,1.006801190E1,-1.997461492E0,1.028651738E1
4.424020625E0,-1.060647205E0,1.025558590E1,-2.186003206E0,1.053947933E1
4.433941625E0,-1.624983914E0,1.030678412E1,-2.546624969E0,1.074037571E1
4.443862625E0,-2.155727786E0,1.036960193E1,-2.861726158E0,1.097111129E1
4.453783625E0,-2.800473358E0,1.051029646E1,-2.467486998E0,1.115336159E1
4.463704625E0,-3.408486430E0,1.064752944E1,-1.588667004E0,1.129210015E1
4.473624625E0,-3.691817942E0,1.058307325E1,-4.088244545E-1,1.121597506E1
4.483545625E0,-2.436971403E0,1.013336155E1,2.270087775E0,1.066663698E1
4.493466625E0,-2.378300880E-1,6.950107529E0,4.990262929E0,8.559397287E0
4.503387625E0,6.739008133E-1,3.448945069E-1,4.998643159E0,5.055643179E0
4.513308625E0,1.587150675E0,-6.366964712E0,5.626396723E0,8.643704471E0
4.523229625E0,1.295732756E0,-1.575499747E1,5.422785564E0,1.671243465E1
4.533150625E0,1.721964079E-1,-3.573774002E1,4.468819347E0,3.601646928E1
4.543071625E0,-2.594460163E0,-6.343141869E1,3.438358101E0,6.357749922E1
4.552992625E0,-1.716713279E-2,-5.878912707E1,1.088454224E0,5.879920483E1
4.562912625E0,9.728112084E0,-2.497444506E1,-1.073745845E0,2.682372086E1
4.572833625E0,1.621609837E1,-1.701928010E1,-2.117423553E0,2.360299184E1
4.582754625E0,1.561566300E1,-2.024987610E1,-5.007768908E0,2.605732455E1
4.592675625E0,1.426560172E1,-2.315029855E1,-3.259026043E0,2.738731396E1
4.602596625E0,8.275261427E0,-2.488764665E1,1.845315186E0,2.629220599E1
4.612517625E0,1.284077209E0,-2.116903268E1,4.535787508E0,2.168755789E1
4.622438625E0,-3.931613133E0,-1.599863691E1,4.187973486E0,1.699862015E1
4.632359625E0,-6.869992488E0,-1.201164158E1,1.605703159E0,1.393034863E1
4.642280625E0,-6.497090403E0,-8.471729627E0,-2.058473679E0,1.087288832E1
4.652200625E0,-4.164035570E0,-4.287600685E0,-3.546247416E0,6.949718167E0
4.662121625E0,-9.545586862E-1,-1.322575276E0,-1.950890173E0,2.542903875E0
4.672042625E0,6.265759349E-1,1.317365407E0,1.173440872E0,1.872167861E0
4.681963625E0,1.994606443E0,4.717491488E0,4.410502142E0,6.759120501E0
4.691884625E0,3.170989487E0,8.408587884E0,6.940422201E0,1.135468999E1
4.701805625E0,3.074047914E0,1.191770723E1,7.689524201E0,1.451241878E1
4.711726625E0,1.139380110E0,1.435130319E1,5.083082215E0,1.526747572E1
4.721647625E0,-1.000770766E0,1.569616045E1,8.157105571E-1,1.574917073E1
4.731567625E0,-1.571080188E0,1.655195425E1,-2.637801772E0,1.683429478E1
4.741488625E0,-1.213316251E0,1.783923749E1,-3.281772589E0,1.817912434E1
4.751409625E0,-5.809365895E-1,1.840599641E1,-1.799931437E0,1.850291718E1
4.761330625E0,2.391280237E-1,1.741725446E1,-2.555601615E-1,1.742077054E1
4.771251625E0,-3.039302297E-1,1.572087312E1,1.246576091E0,1.577314735E1
4.781172625E0,-1.647259175E0,1.293098761E1,1.836694052E0,1.316424507E1
4.791093625E0,-2.109890439E0,1.081390962E1,1.561477890E0,1.112791500E1
4.801014625E0,-1.495801233E0,9.352295161E0,1.483550878E0,9.586645363E0
4.810934625E0,-5.023188016E-1,7.933725561E0,1.381746175E0,8.068800899E0
4.820855625E0,9.574742541E-2,6.716299594E0,4.648448735E-1,6.733047494E0
4.830776625E0,1.301017177E-1,6.406538082E0,-1.212125027E0,6.521495514E0
4.840697625E0,-1.218799478E-1,6.671467237E0,-2.391463839E0,7.088189410E0
4.850618625E0,-7.408903165E-1,7.261800376E0,-2.538078679E0,7.728163206E0
4.860539625E0,-1.255729469E0,7.564413081E0,-2.505465249E0,8.066880306E0
4.870460625E0,-1.210049558E0,7.546415936E0,-2.699114506E0,8.105419948E0
4.880381625E0,-9.054945534E-1,7.934231345E0,-2.940061891E0,8.509753895E0
4.890301625E0,-6.963982679E-1,8.679190008E0,-2.999111168E0,9.209124689E0
4.900222625E0,-7.017785834E-1,9.592008199E0,-2.818991783E0,1.002226667E1
4.910143625E0,-9.519676387E-1,1.041098267E1,-2.357308499E0,1.071688882E1
4.920064625E0,-1.290092678E0,1.038499180E1,-1.892992652E0,1.063465161E1
4.929985625E0,-1.649357010E0,1.040205631E1,-1.441858914E0,1.063024511E1
4.939906625E0,-2.395537156E0,1.068617018E1,-1.086714969E0,1.100517064E1
4.949827625E0,-3.145355001E0,1.122872397E1,-6.342830037E-1,1.167817687E1
4.959748625E0,-4.074997678E0,1.177652621E1,1.156729822E-1,1.246216498E1
4.969669625E0,-4.825000150E0,1.207877581E1,1.424904474E0,1.308464001E1
4.979589625E0,-4.751555028E0,1.201982652E1,3.217470759E0,1.331937021E1
4.989510625E0,-3.450213915E0,1.103612136E1,5.175388116E0,1.266825138E1
4.999431625E0,-1.290791713E0,7.917080292E0,5.517357845E0,9.735889337E0
5.009352625E0,1.026791972E0,2.382880712E0,4.359996817E0,5.073656914E0
5.019273625E0,2.674652972E0,-4.792894843E0,4.015496997E0,6.800722434E0
5.029194625E0,5.014980864E0,-1.775560593E1,4.517201548E0,1.899517531E1
5.039115625E0,6.995860822E0,-4.268160564E1,6.730176791E0,4.377164389E1
5.049036625E0,7.599993973E0,-6.714875095E1,7.159543099E0,6.795567467E1
5.058956625E0,1.393099480E1,-5.257791055E1,-6.137114757E-1,5.439564261E1
5.068877625E0,2.087576908E1,-2.155582599E1,-3.366214569E0,3.019574092E1
5.078801625E0,2.088979071E1,-1.562964720E1,1.590911604E0,2.613809915E1
5.088722625E0,1.666040724E1,-2.146633553E1,3.286580170E0,2.737104929E1
5.098643625E0,1.103836552E1,-2.435501442E1,4.530660669E0,2.712082460E1
5.108564625E0,6.588274223E0,-2.502285767E1,5.128694006E0,2.637901183E1
5.118485625E0,3.377270485E0,-2.265766128E1,3.634218775E0,2.319446306E1
5.128406625E0,4.257211536E-2,-1.806205266E1,1.177163355E0,1.810042188E1
5.138327625E0,-2.449251433E0,-1.422209609E1,-6.968140049E-1,1.444826632E1
5.148247625E0,-3.167056942E0,-1.075907327E1,-2.062312376E0,1.140355381E1
5.158168625E0,-1.913721178E0,-6.245029215E0,-2.269279252E0,6.914647277E0
5.168089625E0,1.568957064E-1,-2.422808424E0,-1.302787129E0,2.755335048E0
5.178010625E0,9.589391278E-1,1.275244989E0,1.602684388E0,2.261506419E0
5.187931625E0,2.110292727E0,5.534400140E0,4.431818166E0,7.397562610E0
5.197852625E0,1.858672566E0,1.060515116E1,5.898113911E0,1.227646702E1
5.207773625E0,1.097075870E0,1.440393982E1,5.521733902E0,1.546501223E1
5.217694625E0,1.578919257E-1,1.628597845E1,4.762253094E0,1.696870880E1
5.227614625E0,-1.897991583E0,1.739757507E1,3.334844257E0,1.781570029E1
5.237535625E0,-2.990892614E0,1.798814034E1,5.125119237E-1,1.824229427E1
5.247456625E0,-3.421709324E0,1.872428024E1,-1.786371744E0,1.911799909E1
5.257377625E0,-3.762602581E0,1.989523546E1,-2.717419800E0,2.042943813E1
5.267298625E0,-3.594654760E0,1.856964828E1,-2.913840052E0,1.913749837E1
5.277219625E0,-3.112043121E0,1.445566897E1,-2.046986239E0,1.492787093E1
5.287140625E0,-2.939618380E0,1.136175748E1,-1.144666651E0,1.179157118E1
5.297061625E0,-3.031025271E0,9.608371047E0,-5.012161629E-1,1.008757285E1
5.306981625E0,-2.850063887E0,8.377958999E0,3.354929151E-1,8.855823883E0
5.316902625E0,-1.944254022E0,7.271189834E0,1.274071453E0,7.633713603E0
5.326823625E0,-6.992153102E-1,6.193322287E0,1.779862039E0,6.481824734E0
5.336744625E0,4.252850975E-1,5.227245902E0,1.240877395E0,5.389317567E0
5.346665625E0,5.216494042E-1,5.090102382E0,-2.269925661E-1,5.121795192E0
5.356586625E0,-1.726346567E-1,5.587396964E0,-1.689700313E0,5.839853997E0
5.366507625E0,-7.687268637E-1,6.195662928E0,-2.168872472E0,6.609174525E0
5.376428625E0,-1.051489442E0,6.922207539E0,-2.254924922E0,7.355764655E0
5.386348625E0,-1.100147047E0,7.568960461E0,-2.432023782E0,8.025847348E0
5.396269625E0,-1.017721187E0,8.327291121E0,-2.490860074E0,8.751223785E0
5.406190625E0,-1.028193258E0,9.187910049E0,-2.305733133E0,9.528445714E0
5.416111625E0,-9.830300948E-1,9.897226424E0,-1.921379276E0,1.012981428E1
5.426032625E0,-9.987884872E-1,1.051069290E1,-1.483442266E0,1.066174679E1
5.435953625E0,-1.149331778E0,1.090496831E1,-1.291315915E0,1.104114099E1
5.445874625E0,-1.530244111E0,1.098408114E1,-1.211388790E0,1.115612605E1
5.455795625E0,-2.044824085E0,1.116089860E1,-1.210235646E0,1.141103122E1
5.465715625E0,-2.463051885E0,1.143063300E1,-1.362105378E0,1.177205702E1
5.475636625E0,-2.772210549E0,1.159249563E1,-1.361304894E0,1.199684363E1
5.485557625E0,-2.979342901E0,1.188376181E1,-1.239365889E0,1.231406946E1
5.495478625E0,-3.020725400E0,1.230094661E1,-1.269449814E0,1.272986930E1
5.505399625E0,-2.949646355E0,1.250276209E1,-1.408438715E0,1.292297076E1
5.515320625E0,-3.019579931E0,1.251349758E1,-1.300510662E0,1.293819201E1
5.525241625E0,-2.199553544E0,1.142416130E1,1.613370175E0,1.174531654E1
5.535162625E0,1.244961236E0,4.886464911E0,5.079902499E0,7.157714524E0
5.545082625E0,3.733399832E0,-3.887586231E0,4.217879655E0,6.844129586E0
5.555003625E0,6.056541880E0,-1.226315255E1,4.723041081E0,1.446975214E1
5.564924625E0,9.023578731E0,-3.414782361E1,4.934727244E0,3.566301114E1
5.574845625E0,7.689502566E0,-6.607868710E1,3.952154694E0,6.664188522E1
5.584766625E0,7.477469078E-1,-6.155896248E1,1.289292340E0,6.157700270E1
5.594687625E0,4.819530079E0,-2.541147532E1,-1.407917435E0,2.590276393E1
5.604608625E0,1.241945915E1,-1.459129864E1,2.037367277E0,1.926914184E1
5.614529625E0,1.608524704E1,-2.029754261E1,5.550721473E0,2.648652331E1
5.624449625E0,1.588444313E1,-2.582183057E1,5.659124758E0,3.084004151E1
5.634370625E0,1.405377463E1,-2.734060741E1,6.089720736E0,3.133850816E1
5.644291625E0,9.902478393E0,-2.524051208E1,6.441224350E0,2.786811619E1
5.654212625E0,5.229681852E0,-2.003461905E1,4.429074068E0,2.117432950E1
5.664133625E0,1.848190847E0,-1.632474081E1,1.477295526E0,1.649531370E1
5.674054625E0,-5.696199614E-1,-1.257193231E1,-1.112926868E0,1.263394456E1
5.683975625E0,-2.736051952E0,-8.904059889E0,-1.618713945E0,9.454549044E0
5.693896625E0,-2.805204048E0,-6.009056057E0,-9.105904750E-1,6.693810533E0
5.703816625E0,-1.839419439E0,-1.807816408E0,6.637490237E-1,2.663123505E0
5.713737625E0,-9.380188134E-1,2.970000805E0,3.688665124E0,4.827735957E0
5.723658625E0,5.958444312E-2,7.993584092E0,5.322843785E0,9.603832719E0
5.733579625E0,4.036950577E-1,1.279941239E1,4.407210744E0,1.354294775E1
5.743500625E0,-3.030139710E-1,1.653449096E1,2.650259850E0,1.674828606E1
5.753421625E0,-1.752703477E0,1.870927277E1,5.410586518E-1,1.879897874E1
5.763342625E0,-2.711939497E0,1.973706126E1,-1.764099700E0,2.000045626E1
5.773263625E0,-2.919694285E0,2.119225080E1,-3.168476354E0,2.162580290E1
5.783183625E0,-2.912389651E0,2.207933423E1,-3.455799176E0,2.253711519E1
5.793104625E0,-3.086481726E0,2.113203150E1,-2.923682086E0,2.155544111E1
5.803025625E0,-2.842983493E0,1.571962532E1,-2.092237256E0,1.611107173E1
5.812946625E0,-2.560758859E0,1.151808162E1,-8.963792559E-1,1.183330832E1
5.822867625E0,-2.064293997E0,9.814459087E0,5.050222617E-1,1.004191039E1
5.832788625E0,-1.261663954E0,7.910044922E0,1.700005445E0,8.188444609E0
5.842709625E0,-5.399241458E-1,6.308950977E0,2.082189401E0,6.665575235E0
5.852630625E0,-4.159526490E-1,5.192704060E0,1.699016681E0,5.479402316E0
5.862550625E0,-5.703378533E-1,4.489454756E0,7.333531094E-1,4.584571524E0
5.872471625E0,-8.666881911E-1,4.541497314E0,-5.246753383E-1,4.653131256E0
5.882392625E0,-1.103136144E0,5.140629927E0,-1.807521708E0,5.559687052E0
5.892313625E0,-1.093299226E0,5.987716058E0,-2.617304943E0,6.625581632E0
5.902234625E0,-9.084488592E-1,6.934949791E0,-2.883608778E0,7.565316089E0
5.912155625E0,-9.327868710E-1,7.801487855E0,-2.897657883E0,8.374349247E0
5.922076625E0,-1.121467018E0,8.561251668E0,-2.837841452E0,9.088787736E0
5.931996625E0,-1.511050040E0,9.228973875E0,-2.584863421E0,9.702512557E0
5.941917625E0,-1.947755920E0,9.791857844E0,-2.181159373E0,1.021918242E1
5.951838625E0,-2.314170227E0,1.024732378E1,-1.873445410E0,1.067112113E1
5.961759625E0,-2.579125548E0,1.063261436E1,-1.662441617E0,1.106653012E1
5.971680625E0,-2.897005334E0,1.098633817E1,-1.551690236E0,1.146734533E1
5.981601625E0,-3.145065272E0,1.116413913E1,-1.508668177E0,1.169638909E1
5.991522625E0,-3.177809387E0,1.121530344E1,-1.271057798E0,1.172591539E1
6.001443625E0,-3.097302291E0,1.121767741E1,-7.414870249E-1,1.166101929E1
6.011363625E0,-3.000392000E0,1.121508826E1,-1.018508953E-1,1.160994963E1
6.021284625E0,-2.901182292E0,1.129330880E1,3.712813832E-1,1.166591326E1
6.031205625E0,-2.735207614E0,1.151521064E1,4.566236883E-1,1.184440551E1
6.041126625E0,-2.450762792E0,1.192990102E1,-1.880020165E-1,1.218048116E1
6.051047625E0,-2.185862727E0,1.191140394E1,-1.603529896E0,1.221600785E1
6.060968625E0,-1.863347269E0,1.149964652E1,-6.106544052E-1,1.166562608E1
6.070889625E0,4.134962337E-1,7.383478594E0,3.394359557E0,8.136855172E0
6.080807250E0,2.917841302E0,-8.571076745E-1,5.608154579E0,6.379641778E0
6.090727250E0,4.379318356E0,-6.913774100E0,7.937074846E0,1.140069553E1
6.100648250E0,8.437838581E0,-2.726122561E1,8.437108263E0,2.975829864E1
6.110569250E0,1.133648347E1,-6.602552422E1,1.059046062E1,6.782362097E1
6.120490250E0,6.741735567E0,-6.571268414E1,4.040177509E0,6.618104631E1
6.130411250E0,1.044267107E1,-3.103626522E1,-3.210366392E0,3.290297237E1
6.140332250E0,1.573321308E1,-1.226016111E1,-6.282994017E-1,1.995595913E1
6.150253250E0,1.775247066E1,-1.461838178E1,4.650269266E0,2.346214620E1
6.160174250E0,1.460611081E1,-2.361102172E1,6.658107519E0,2.855081812E1
6.170094250E0,1.209953576E1,-2.709814443E1,7.802861366E0,3.068538484E1
6.180015250E0,9.367840569E0,-2.605316747E1,6.235105321E0,2.837957911E1
6.189936250E0,5.852572871E0,-2.254534328E1,2.962040990E0,2.348017887E1
6.199857250E0,2.394561694E0,-1.795220570E1,-5.834584205E-1,1.812059709E1
6.209778250E0,-7.095049480E-1,-1.391770174E1,-2.101269450E0,1.409330168E1
6.219699250E0,-2.627893665E0,-1.057444275E1,-2.481134984E0,1.117500315E1
6.229620250E0,-2.377645115E0,-6.280548711E0,-2.152585784E0,7.052099969E0
6.239541250E0,-2.176322410E0,-1.040114415E0,-7.838609196E-2,2.413371419E0
6.249461250E0,-1.622066885E0,3.655765765E0,2.890115560E0,4.934419140E0
6.259382250E0,-8.100349572E-1,8.226457057E0,4.792709486E0,9.555146077E0
6.269303250E0,-4.054930034E-1,1.236179508E1,4.630869082E0,1.320694327E1
6.279224250E0,-1.025371245E0,1.588652708E1,2.956196113E0,1.619173321E1
6.289145250E0,-2.227875995E0,1.819090775E1,7.651864477E-1,1.834279331E1
6.299066250E0,-2.626866602E0,1.948653847E1,-1.705928675E0,1.973666138E1
6.308987250E0,-2.882828760E0,2.070956549E1,-3.553592688E0,2.120907413E1
6.318907250E0,-3.007464500E0,2.162416825E1,-3.812313269E0,2.216265389E1
6.328828250E0,-2.707174893E0,1.975463097E1,-3.383622900E0,2.022432062E1
6.338749250E0,-2.542908479E0,1.436476114E1,-2.550998687E0,1.480946793E1
6.348670250E0,-2.986066614E0,1.167630728E1,-1.176824729E0,1.210940386E1
6.358591250E0,-3.064733884E0,1.040159438E1,3.169646966E-1,1.084832826E1
6.368512250E0,-2.655457148E0,8.731288115E0,1.288443325E0,9.216665938E0
6.378433250E0,-2.361889354E0,7.130384204E0,1.287884331E0,7.620993784E0
6.388354250E0,-2.418702655E0,5.922961653E0,7.686568433E-1,6.443790082E0
6.398274250E0,-2.507714673E0,5.174405783E0,2.569798654E-1,5.755792451E0
6.408195250E0,-2.459985313E0,4.971150720E0,-5.027669907E-2,5.546746341E0
6.418116250E0,-2.263266121E0,5.376912403E0,-5.410093890E-1,5.858860955E0
6.428037250E0,-1.764362386E0,6.258370222E0,-1.284644389E0,6.628007519E0
6.437958250E0,-1.322196669E0,6.830172949E0,-1.979208239E0,7.233030610E0
6.447879250E0,-1.322465641E0,7.212028876E0,-2.539776710E0,7.759686954E0
6.457800250E0,-1.603721977E0,7.908705910E0,-2.750920252E0,8.525673908E0
6.467720250E0,-1.785208733E0,8.675858265E0,-2.741622010E0,9.272215382E0
6.477641250E0,-1.771421145E0,9.450189831E0,-2.614162064E0,9.963827779E0
6.487562250E0,-1.654104656E0,1.034009922E1,-2.337098767E0,1.072920056E1
6.497483250E0,-1.540756673E0,1.138214555E1,-1.653097912E0,1.160430529E1
6.507404250E0,-1.500008305E0,1.237205343E1,-6.354793440E-1,1.247884470E1
6.517325250E0,-1.468860041E0,1.320721475E1,2.259038146E-1,1.329056447E1
6.527246250E0,-1.389031806E0,1.378668669E1,5.070356043E-1,1.386575726E1
6.537167250E0,-1.329890289E0,1.383111149E1,2.225766027E-1,1.389668283E1
6.547087250E0,-1.667747965E0,1.346154291E1,-1.383901459E-1,1.356516393E1
6.557008250E0,-2.100073110E0,1.309546160E1,-5.695847319E-1,1.327500841E1
6.566929250E0,-2.321123297E0,1.289509389E1,-1.408525254E0,1.317782240E1
6.576850250E0,-2.495902712E0,1.267905097E1,-2.052172281E0,1.308431407E1
6.586771250E0,-2.755675208E0,1.191506546E1,-1.834834052E0,1.236645248E1
6.596692250E0,-2.208348341E0,9.959127388E0,5.923040883E-1,1.021821143E1
6.606613250E0,-1.629092753E-2,4.307967707E0,4.800472249E0,6.450068602E0
6.616534250E0,2.193596693E0,-3.045743882E0,7.141111506E0,8.067459066E0
6.626454250E0,3.418595096E0,-1.118283502E1,8.265439859E0,1.431991926E1
6.636375250E0,4.824791112E0,-3.806596330E1,8.233635684E0,3.924396677E1
6.646296250E0,4.637901236E0,-6.884157602E1,9.470184969E0,6.964450531E1
6.656217250E0,6.729930038E0,-5.020993790E1,4.032086132E0,5.081916509E1
6.666138250E0,1.303537093E1,-1.617258924E1,1.708668095E0,2.084209886E1
6.676059250E0,1.759647747E1,-1.189133044E1,3.064658163E0,2.145767668E1
6.685980250E0,1.767836889E1,-2.190023635E1,4.452778680E0,2.849512795E1
6.695901250E0,1.398770461E1,-3.287509760E1,4.569516879E0,3.601816773E1
6.705821250E0,1.033024198E1,-3.623621047E1,3.014654529E0,3.780033057E1
6.715742250E0,6.470447565E0,-3.187303687E1,6.723821452E-1,3.253012863E1
6.725663250E0,3.746263706E0,-2.476797988E1,-2.893314864E-1,2.505136786E1
6.735584250E0,2.007271658E0,-1.923917084E1,-3.048024881E-1,1.934600059E1
6.745505250E0,1.497915001E0,-1.522237694E1,9.248350963E-2,1.529617802E1
6.755426250E0,4.290637144E-1,-1.140371476E1,4.666950788E-1,1.142132262E1
6.765347250E0,-5.002116112E-1,-7.361702979E0,1.346634815E0,7.500553828E0
6.775267250E0,-9.516742547E-1,-2.370572323E0,2.679105334E0,3.701743159E0
6.785188250E0,-1.592922608E0,2.397737317E0,3.452198460E0,4.494910554E0
6.795109250E0,-2.253826523E0,7.155182245E0,4.168388822E0,8.582064573E0
6.805030250E0,-2.158999303E0,1.173858714E1,4.678157853E0,1.281955018E1
6.814951250E0,-1.859380956E0,1.544682816E1,4.187712116E0,1.611206785E1
6.824872250E0,-2.284404683E0,1.758562387E1,2.206601778E0,1.787013606E1
6.834793250E0,-2.929638644E0,1.804114652E1,-6.721052796E-1,1.828981892E1
6.844714250E0,-2.427865388E0,1.822298791E1,-2.567810016E0,1.856247470E1
6.854634250E0,-1.545609131E0,1.846115670E1,-3.140113850E0,1.878998482E1
6.864555250E0,-1.324477230E0,1.933516575E1,-2.936033159E0,1.960161129E1
6.874476250E0,-1.456265723E0,2.069350202E1,-2.266243962E0,2.086809999E1
6.884397250E0,-1.854771742E0,1.988406494E1,-5.140573428E-1,1.997699856E1
6.894318250E0,-1.121869892E0,1.226993064E1,1.392579312E0,1.239955915E1
6.904239250E0,-8.052842407E-1,8.831931560E0,2.556272875E0,9.229627772E0
6.914160250E0,-1.209441155E0,7.686653802E0,2.966336355E0,8.327457352E0
6.924080250E0,-1.380197686E0,6.395542978E0,2.664593130E0,7.064557466E0
6.934001250E0,-1.256600119E0,5.590373781E0,1.434892688E0,5.906796077E0
6.943922250E0,-1.415272940E0,5.464321260E0,-2.934004907E-1,5.652246295E0
6.953843250E0,-1.887017675E0,5.955192091E0,-1.525691176E0,6.430620663E0
6.963764250E0,-1.958123033E0,6.486675927E0,-1.758818495E0,7.000332342E0
6.973685250E0,-1.674339092E0,6.885096431E0,-1.942940299E0,7.347311159E0
6.983606250E0,-1.296756165E0,7.142970335E0,-2.495331439E0,7.676606070E0
6.993527250E0,-1.070787739E0,7.814333603E0,-2.721778314E0,8.343768527E0
7.003447250E0,-1.273182969E0,8.578897396E0,-2.730971891E0,9.092671932E0
7.013368250E0,-1.755875883E0,9.225099510E0,-2.517579510E0,9.722333448E0
7.023289250E0,-2.241538745E0,9.738691451E0,-1.653192637E0,1.012914868E1
7.033210250E0,-2.818235153E0,1.037890952E1,-4.834694248E-1,1.076559125E1
7.043131250E0,-3.295003669E0,1.106479845E1,4.862047158E-1,1.155522431E1
7.053052250E0,-3.530659323E0,1.168774326E1,1.177076086E0,1.226598573E1
7.062973250E0,-3.668761202E0,1.211637457E1,1.562004139E0,1.275563399E1
7.072893250E0,-3.751604553E0,1.239385302E1,1.748073651E0,1.306667100E1
7.082814625E0,-3.719237875E0,1.249519930E1,1.706196477E0,1.314814977E1
7.092735625E0,-3.570712166E0,1.244697030E1,1.608022896E0,1.304847856E1
7.102656625E0,-3.157571589E0,1.199611723E1,1.469173159E0,1.249141932E1
7.112577625E0,-2.751559061E0,1.134589749E1,3.300297153E-1,1.167944291E1
7.122498625E0,-2.503332769E0,1.097893793E1,-4.647600889E-1,1.127030412E1
7.132419625E0,-2.514234318E0,9.657394688E0,8.882155196E-1,1.001876106E1
7.142339625E0,-1.597942881E0,5.509614962E0,3.291438037E0,6.613837225E0
7.152260625E0,-4.805620430E-1,1.032184421E0,5.309934302E0,5.430630428E0
7.162181625E0,2.217691022E-1,-5.752426440E-1,6.972410563E0,6.999613896E0
7.172102625E0,2.301747671E0,-2.905228273E0,7.074379572E0,7.986566220E0
7.182023625E0,8.469570251E0,-3.878148474E1,5.577407581E0,4.008546687E1
7.191944625E0,1.523691428E1,-7.070531286E1,1.381849320E1,7.363664562E1
7.201865625E0,1.609053292E1,-4.622383953E1,5.773932499E0,4.928373857E1
7.211786625E0,1.997842730E1,-1.466786209E1,-8.063633443E-1,2.479786195E1
7.221706625E0,2.104739188E1,-1.649078653E1,1.080682982E0,2.676016855E1
7.231627625E0,1.618057771E1,-2.645210662E1,2.246839685E0,3.108976244E1
7.241548625E0,1.018988892E1,-2.863844604E1,3.105735730E0,3.055552360E1
7.251469625E0,7.149153766E0,-2.796713423E1,4.604082402E0,2.923129439E1
7.261390625E0,5.961459137E0,-2.472364161E1,5.234518669E0,2.596531600E1
7.271311625E0,5.172574435E0,-2.045761130E1,3.329046743E0,2.136239544E1
7.281232625E0,4.465974092E0,-1.599249734E1,7.812936265E-1,1.662273490E1
7.291153625E0,2.542627228E0,-1.153425970E1,4.110533401E-1,1.181833596E1
7.301073625E0,7.647849633E-1,-7.178299212E0,5.861465317E-1,7.242682057E0
7.310994625E0,-6.090796039E-1,-2.120040182E0,1.479227446E0,2.655873147E0
7.320915625E0,-1.806562765E0,2.622946336E0,2.594027762E0,4.107614458E0
7.330836625E0,-2.672949970E0,7.077882639E0,3.681416915E0,8.413911974E0
7.340757625E0,-2.755816711E0,1.084629618E1,4.224222715E0,1.196163551E1
7.350678625E0,-2.504747211E0,1.404046286E1,3.660338287E0,1.472434828E1
7.360599625E0,-2.729695444E0,1.652270999E1,1.919186570E0,1.685628843E1
7.370519625E0,-3.307033145E0,1.768151703E1,-6.058580804E-1,1.799832150E1
7.380440625E0,-3.848976773E0,1.860978240E1,-3.009842563E0,1.924052430E1
7.390361625E0,-4.157330275E0,1.947037092E1,-4.363556017E0,2.038183897E1
7.400282625E0,-4.298474752E0,2.005302374E1,-4.164079424E0,2.092702090E1
7.410203625E0,-4.794280633E0,2.020121324E1,-2.988048820E0,2.097623843E1
7.420124625E0,-4.095106838E0,1.535654247E1,-1.655570700E0,1.597918055E1
7.430045625E0,-3.379498566E0,1.025329847E1,1.937182546E-2,1.079590271E1
7.439966625E0,-3.626533780E0,8.660141534E0,1.766891161E0,9.553622507E0
7.449886625E0,-3.218192305E0,7.059596642E0,3.055455523E0,8.338493563E0
7.459807625E0,-2.044979328E0,5.710656855E0,3.426627417E0,6.966729334E0
7.469728625E0,-1.050933664E0,4.823669908E0,2.647122819E0,5.601741887E0
7.479649625E0,-4.794380620E-1,4.425067556E0,8.877763206E-1,4.538637519E0
7.489570625E0,-7.134158581E-2,4.357575485E0,-1.002071845E0,4.471878991E0
7.499491625E0,2.319002804E-1,4.871819975E0,-2.273270561E0,5.381093444E0
7.509412625E0,2.110447240E-1,5.892940879E0,-2.934449149E0,6.586522898E0
7.519332625E0,1.725370082E-1,7.037704666E0,-3.003093122E0,7.653602046E0
7.529253625E0,4.406607896E-2,7.692385828E0,-2.954011593E0,8.240201820E0
7.539174625E0,-5.718723089E-1,8.368616903E0,-2.924251020E0,8.883244387E0
7.549095625E0,-1.350120048E0,9.139527263E0,-2.438177830E0,9.555024535E0
7.559016625E0,-2.002977609E0,9.888134004E0,-1.897930772E0,1.026592687E1
7.568937625E0,-2.562844561E0,1.067510959E1,-1.484196995E0,1.107831114E1
7.578858625E0,-3.077515898E0,1.142081787E1,-7.940203106E-1,1.185481561E1
7.588778625E0,-3.561938419E0,1.206820872E1,-1.023772178E-1,1.258330434E1
7.598699625E0,-4.169412670E0,1.265452307E1,2.655418702E-1,1.332634490E1
7.608620625E0,-4.527115502E0,1.312152147E1,3.586261082E-1,1.388516162E1
7.618541625E0,-4.643050586E0,1.344794111E1,2.804488349E-1,1.422967640E1
7.628462625E0,-4.636630343E0,1.378588328E1,9.557208203E-2,1.454503533E1
7.638383625E0,-4.485103258E0,1.371478582E1,-3.381459430E-2,1.442957534E1
7.648304625E0,-4.042131941E0,1.333992433E1,-3.392854191E-1,1.394300994E1
7.658224625E0,-3.417644339E0,1.272110648E1,-1.471419221E0,1.325412832E1
7.668145625E0,-3.184651507E0,1.174410340E1,-2.795836809E0,1.248529829E1
7.678066625E0,-2.443665734E0,1.019664947E1,-1.264669715E0,1.056137075E1
7.687987625E0,2.729415947E-1,5.883591181E0,2.660339280E0,6.462859072E0
7.697908625E0,2.318804584E0,1.117474247E0,5.617755123E0,6.179383141E0
7.707829625E0,4.080798993E0,-1.318748274E0,7.234718996E0,8.410301801E0
7.717750625E0,9.852425058E0,-2.162247723E1,5.972830217E0,2.450054085E1
7.727671625E0,1.901363204E1,-6.579671565E1,6.063928667E0,6.875679766E1
7.737591625E0,1.585664664E1,-6.799947405E1,3.772941043E0,6.992565193E1
7.747512625E0,1.270841100E1,-3.976797551E1,-4.164498085E-1,4.175127563E1
7.757433625E0,1.366098091E1,-1.676497183E1,-7.596205562E-2,2.162619823E1
7.767354625E0,1.571868158E1,-1.278855411E1,5.436741114E0,2.098052003E1
7.777275625E0,1.680130175E1,-1.863885826E1,7.203389615E0,2.610707949E1
7.787196625E0,1.599857610E1,-2.429057811E1,6.930298331E0,2.990009460E1
7.797117625E0,1.304158301E1,-2.434266043E1,3.669492688E0,2.785880796E1
7.807037625E0,7.263867366E0,-2.130534063E1,1.145530357E0,2.253871221E1
7.816958625E0,1.128277270E0,-1.755014179E1,-2.923974739E-1,1.758880277E1
7.826879625E0,-3.860807445E0,-1.355829211E1,-1.339738609E0,1.416079159E1
7.836800625E0,-6.482614451E0,-9.017124574E0,-3.305657588E-1,1.111045001E1
7.846721625E0,-6.947579777E0,-5.866625485E0,3.775015050E-1,9.101025587E0
7.856642625E0,-4.235639696E0,-2.335105451E0,2.003046752E0,5.235031747E0
7.866563625E0,-9.738698468E-1,1.907638904E0,2.903015102E0,3.607631543E0
7.876484625E0,6.203520124E-1,5.828301079E0,3.411723449E0,6.781871938E0
7.886404625E0,1.671123562E0,8.949800903E0,4.019849079E0,9.952425673E0
7.896325625E0,1.688256050E0,1.201932600E1,3.872129116E0,1.274000745E1
7.906246625E0,1.114849724E0,1.494308117E1,2.375994446E0,1.517181316E1
7.916167625E0,6.308751002E-2,1.739302711E1,-1.253596441E-1,1.739359328E1
7.926088625E0,-1.544529005E0,1.849879523E1,-3.099816009E0,1.882019803E1
7.936009625E0,-3.098981026E0,1.908738180E1,-5.110681073E0,2.000127217E1
7.945930625E0,-3.985424182E0,1.976827837E1,-5.227132466E0,2.083245904E1
7.955850625E0,-4.674084683E0,1.988921516E1,-4.097960279E0,2.083797557E1
7.965771625E0,-5.177102519E0,1.651113133E1,-2.556895019E0,1.749164259E1
7.975692625E0,-5.206788833E0,1.141299780E1,-1.376712307E0,1.261992494E1
7.985613625E0,-5.261508247E0,9.471131634E0,-4.784349722E-1,1.084503128E1
7.995534625E0,-4.520274552E0,8.132639651E0,3.099228948E-1,9.309605895E0
8.005455625E0,-3.282216393E0,7.366765498E0,8.519129350E-1,8.109743152E0
8.015376625E0,-1.997978678E0,6.696659966E0,1.048622113E0,7.066596199E0
8.025296625E0,-8.727482454E-1,6.176550719E0,1.054059366E0,6.326334596E0
8.035217625E0,3.362166542E-1,5.951197858E0,7.094291534E-1,6.002756642E0
8.045138625E0,1.206349732E0,5.819213337E0,-2.242266139E-1,5.947167486E0
8.055059625E0,1.338474587E0,5.851046163E0,-1.593452804E0,6.210100423E0
8.064980625E0,6.567355809E-1,6.299044039E0,-2.692960896E0,6.881954361E0
8.074901625E0,-6.227419156E-1,7.004321158E0,-3.351516423E0,7.789800043E0
8.084822000E0,-1.741007730E0,7.971869287E0,-3.323228763E0,8.810542393E0
8.094742000E0,-2.352048051E0,8.824800881E0,-2.606696339E0,9.497584241E0
8.104663000E0,-2.759252242E0,9.659871569E0,-1.675684537E0,1.018501401E1
8.114584000E0,-2.998262737E0,1.055099191E1,-8.302701241E-1,1.100010719E1
8.124505000E0,-3.054770521E0,1.153935028E1,-5.071114719E-2,1.193695101E1
8.134426000E0,-2.893649909E0,1.261413284E1,6.154854479E-1,1.295640303E1
8.144347000E0,-2.700964565E0,1.338956251E1,1.233973587E0,1.371489280E1
8.154268000E0,-2.819738180E0,1.355701390E1,1.743175439E0,1.395643973E1
8.164188000E0,-3.210547363E0,1.330533337E1,1.771579458E0,1.380137690E1
8.174109000E0,-3.657293642E0,1.317071526E1,1.625875030E0,1.376542796E1
8.184030000E0,-3.823959169E0,1.302920212E1,1.210813204E0,1.363263878E1
8.193951000E0,-4.208591353E0,1.248070055E1,1.254480357E0,1.323079167E1
8.203872000E0,-4.631947893E0,1.079315084E1,3.459535546E0,1.224399577E1
8.213793000E0,-2.733693185E0,5.974952171E0,6.741250833E0,9.413691873E0
8.223714000E0,-1.666433072E-1,-2.527751327E-1,7.951719782E0,7.957481559E0
8.233634000E0,1.858651223E0,-2.972232102E0,9.095020012E0,9.747211758E0
8.243555000E0,6.483704957E0,-2.022430974E1,7.902574520E0,2.266079916E1
8.253476000E0,1.460513082E1,-6.557546637E1,8.377966016E0,6.770259928E1
8.263397000E0,1.735614638E1,-6.246179129E1,3.471166243E0,6.492118439E1
8.273318000E0,1.909887275E1,-2.524520623E1,-5.289719308E0,3.209468037E1
8.283239000E0,2.140994966E1,-1.270474597E1,-3.675612384E0,2.516558445E1
8.293160000E0,1.861585064E1,-1.945033719E1,-1.162557449E0,2.694841464E1
8.303080000E0,1.364765861E1,-2.755200297E1,1.504172838E0,3.078366432E1
8.313001000E0,9.710681534E0,-2.808569004E1,3.567882991E0,2.993047126E1
8.322922000E0,7.450958387E0,-2.579207292E1,4.199137575E0,2.717315887E1
8.332843000E0,5.831118268E0,-2.152572920E1,3.736177844E0,2.261234138E1
8.342764000E0,3.975331011E0,-1.681235883E1,1.940662955E0,1.738461500E1
8.352685000E0,7.912702189E-1,-1.280277103E1,1.312756193E0,1.289419961E1
8.362606000E0,-1.846297080E0,-9.407254311E0,7.775978208E-2,9.587037768E0
8.372527000E0,-2.839036038E0,-5.847819085E0,-8.058930820E-1,6.550311240E0
8.382447000E0,-3.201165505E0,-1.288570794E0,6.613961041E-1,3.513590769E0
8.392368000E0,-3.852611110E0,3.321361747E0,2.170565972E0,5.530408020E0
8.402289000E0,-3.861302996E0,7.143974302E0,2.475487159E0,8.489644653E0
8.412210000E0,-3.346339883E0,1.069695479E1,2.246294432E0,1.143103980E1
8.422131000E0,-2.518416247E0,1.360081072E1,1.472697861E0,1.391018733E1
8.432052000E0,-1.828394660E0,1.586095370E1,3.772932710E-1,1.597044863E1
8.441972000E0,-1.838107031E0,1.780748126E1,-9.626978642E-1,1.792796178E1
8.451893000E0,-2.432934339E0,1.891436854E1,-2.746307968E0,1.926693318E1
8.461814000E0,-2.903134970E0,1.962113202E1,-3.880727447E0,2.021081542E1
8.471735000E0,-3.247463174E0,1.977641536E1,-3.887758139E0,2.041487901E1
8.481656000E0,-3.501389039E0,1.827847565E1,-3.144081185E0,1.887452367E1
8.491577000E0,-2.850412381E0,1.296999906E1,-2.022596333E0,1.343266996E1
8.501498000E0,-3.281725227E0,1.047464833E1,-7.813961720E-1,1.100447900E1
8.511418000E0,-3.692053585E0,9.208881673E0,6.052357905E-1,9.939872821E0
8.521339000E0,-3.400152101E0,7.893959232E0,1.711411024E0,8.763820763E0
8.531260000E0,-2.756440901E0,6.677693937E0,2.011905869E0,7.499155151E0
8.541181000E0,-1.892967655E0,5.377446254E0,1.726580894E0,5.956621219E0
8.551102000E0,-1.029892312E0,4.382918487E0,9.938261014E-1,4.610677060E0
8.561023000E0,-4.779854675E-1,4.259449266E0,-8.110738613E-2,4.286951896E0
8.570944000E0,-3.096726340E-1,4.819573349E0,-1.037869669E0,4.939773057E0
8.580864000E0,-5.511336967E-2,5.425030310E0,-1.669658396E0,5.676420572E0
8.590785000E0,9.787025705E-2,6.379060262E0,-2.198458945E0,6.747978226E0
8.600706000E0,6.171823829E-2,7.326200439E0,-2.845910609E0,7.859785571E0
8.610627000E0,-3.276401044E-1,8.181050504E0,-3.309680180E0,8.831246700E0
8.620548000E0,-9.059149683E-1,9.260955806E0,-3.347257896E0,9.888888703E0
8.630469000E0,-1.244742697E0,1.038729794E1,-2.848020285E0,1.084235041E1
8.640390000E0,-1.529706898E0,1.148313749E1,-2.014386258E0,1.175840983E1
8.650310000E0,-1.994611997E0,1.253257470E1,-1.066500048E0,1.273504331E1
8.660231000E0,-2.471158173E0,1.344520929E1,-5.474155985E-2,1.367052568E1
8.670152000E0,-2.918512563E0,1.421396612E1,7.274205244E-1,1.452871946E1
8.680073000E0,-3.438393184E0,1.452159866E1,1.090676604E0,1.496291920E1
8.689994000E0,-4.032316220E0,1.433970933E1,9.850026530E-1,1.492839804E1
8.699915000E0,-4.520097674E0,1.420554613E1,3.641341853E-1,1.491178788E1
8.709836000E0,-4.862351871E0,1.369550053E1,-4.117482086E-1,1.453886987E1
8.719756000E0,-5.415997531E0,1.290042655E1,-1.859246470E-1,1.399244805E1
8.729677000E0,-4.639024778E0,1.034729597E1,2.245071633E0,1.155973319E1
8.739598000E0,-1.652648261E0,5.488247482E0,5.657957654E0,8.053855692E0
8.749519000E0,1.233281862E0,-5.469643396E-1,7.606414216E0,7.725133744E0
8.759440000E0,4.129805385E0,-6.497327215E0,8.418164454E0,1.140771871E1
8.769361000E0,8.976868833E0,-2.969233416E1,6.123434612E0,3.161827531E1
8.779282000E0,1.330759390E1,-6.627520032E1,4.336841843E0,6.773700931E1
8.789202000E0,1.229945674E1,-6.111495299E1,-3.376509762E-1,6.234122330E1
8.799123000E0,1.171305703E1,-2.375168234E1,-5.601232061E0,2.706865197E1
8.809044000E0,1.312163841E1,-1.054794668E1,-2.089114843E0,1.696469789E1
8.818965000E0,1.260394231E1,-1.951018929E1,8.507999906E-1,2.324286360E1
8.828886000E0,1.169071949E1,-2.669787211E1,4.614821398E0,2.950840345E1
8.838807000E0,9.801720927E0,-2.766647976E1,6.826540074E0,3.013485498E1
8.848728000E0,7.257543018E0,-2.622911487E1,6.042060081E0,2.787731851E1
8.858648000E0,5.741081672E0,-2.244496764E1,3.499177330E0,2.343034001E1
8.868569000E0,4.454501855E0,-1.835609744E1,6.378632538E-1,1.889962353E1
8.878490000E0,3.506085522E0,-1.505738488E1,-1.302302980E0,1.551494338E1
8.888411000E0,1.091978340E0,-1.120100115E1,-9.557789270E-1,1.129461627E1
8.898332000E0,-3.154505602E-1,-8.286001593E0,3.126044279E-1,8.297894491E0
8.908253000E0,-9.335597268E-1,-3.843247379E0,1.934321065E0,4.402690332E0
8.918174000E0,-1.897746146E0,1.209839789E0,3.953427633E0,4.549147481E0
8.928094000E0,-2.599646644E0,5.425167135E0,4.309254679E0,7.400018716E0
8.938015000E0,-2.734074716E0,8.932779658E0,4.057623847E0,1.018499034E1
8.947936000E0,-1.880626668E0,1.247375639E1,3.978323908E0,1.322718475E1
8.957857000E0,-1.288640960E0,1.501027503E1,2.894554766E0,1.534103645E1
8.967778000E0,-1.654785126E0,1.691593641E1,1.113299847E0,1.703310468E1
8.977699000E0,-2.599076248E0,1.799481786E1,-1.210711024E0,1.822181354E1
8.987620000E0,-3.360341333E0,1.834896968E1,-3.096330484E0,1.890935866E1
8.997540000E0,-3.650433104E0,1.895649071E1,-3.814187887E0,1.967796309E1
9.007461000E0,-3.669397379E0,1.957494253E1,-3.753349947E0,2.026648682E1
9.017382000E0,-3.464298103E0,1.858737704E1,-2.607206801E0,1.908636880E1
9.027303000E0,-2.756320448E0,1.338999053E1,-5.643956204E-1,1.368238616E1
9.037224000E0,-2.926267725E0,1.031742839E1,9.307737478E-1,1.076469745E1
9.047145000E0,-3.003700647E0,8.775424068E0,2.003052015E0,9.489072796E0
9.057065000E0,-2.548688744E0,7.319453337E0,2.395399600E0,8.112222304E0
9.066986000E0,-1.730492974E0,5.906891166E0,1.554754761E0,6.348482618E0
9.076907000E0,-1.154790154E0,4.764749270E0,1.588284304E-1,4.905262723E0
9.086827917E0,-1.019509704E0,4.255861999E0,-1.401175303E0,4.595111927E0
9.096748917E0,-1.457826637E0,4.400704547E0,-2.469955693E0,5.252822112E0
9.106669917E0,-1.911804168E0,5.007254938E0,-2.717155505E0,6.009203877E0
9.116590917E0,-1.815153494E0,5.896863191E0,-2.499697555E0,6.657046310E0
9.126510917E0,-1.053720886E0,7.090352996E0,-2.459005612E0,7.578267738E0
9.136431917E0,-4.284124808E-1,8.201214627E0,-2.649911941E0,8.629339019E0
9.146352917E0,-4.137022018E-1,9.251189786E0,-2.754846073E0,9.661513280E0
9.156273917E0,-7.686480725E-1,1.000184247E1,-2.731491709E0,1.039657249E1
9.166194917E0,-1.281495663E0,1.041971490E1,-2.815682259E0,1.086925740E1
9.176115917E0,-1.659994995E0,1.078572020E1,-2.396890056E0,1.117284322E1
9.186035917E0,-2.428364740E0,1.120428494E1,-1.679752298E0,1.158682546E1
9.195956917E0,-3.312417846E0,1.143874894E1,-1.183439026E0,1.196735631E1
9.205877917E0,-4.052793754E0,1.169581359E1,-9.017594252E-1,1.241089693E1
9.215798917E0,-4.473874265E0,1.200775319E1,-7.858535776E-1,1.283819510E1
9.225719917E0,-4.730936284E0,1.231333335E1,-6.407443231E-1,1.320645636E1
9.235640917E0,-4.833624793E0,1.241052577E1,-2.840642414E-1,1.332162794E1
9.245561917E0,-5.111447643E0,1.265216196E1,2.759198740E-2,1.364569018E1
9.255481917E0,-5.433019361E0,1.306630972E1,9.327436016E-1,1.418154292E1
9.265402917E0,-4.806563294E0,1.213470325E1,4.383244761E0,1.376832991E1
9.275323917E0,-1.596500373E0,6.795066851E0,7.208418805E0,1.003409431E1
9.285244917E0,1.000730494E0,1.676206108E0,7.305885458E0,7.562214673E0
9.295165917E0,2.870157843E0,-1.639083306E0,7.789143214E0,8.461391855E0
9.305086917E0,8.458803772E0,-1.981258156E1,6.423653467E0,2.248005945E1
9.315007917E0,1.417403666E1,-6.094727823E1,6.228828335E0,6.288300519E1
9.324927917E0,1.538160130E1,-6.976871989E1,7.536280957E0,7.184054192E1
9.334848917E0,1.672367879E1,-4.775797584E1,2.383973995E0,5.065756627E1
9.344769917E0,1.951700364E1,-1.464389669E1,-6.645364097E0,2.528869323E1
9.354690917E0,1.812376066E1,-8.209636956E0,-9.747196226E0,2.215573682E1
9.364611917E0,1.674884053E1,-2.056148124E1,-8.762021080E0,2.792975444E1
9.374532917E0,1.296887289E1,-2.586983621E1,-2.155982432E-1,2.893936026E1
9.384453917E0,9.009937177E0,-2.523757444E1,4.993378326E0,2.725890605E1
9.394373917E0,5.738950946E0,-2.091030742E1,4.736107854E0,2.219475685E1
9.404294917E0,1.884699107E0,-1.580855212E1,2.090618747E0,1.605718212E1
9.414215917E0,-1.740659674E0,-1.239495581E1,-1.868343276E-1,1.251797638E1
9.424136917E0,-4.267826279E0,-9.284656910E0,5.897801377E-2,1.021874129E1
9.434057917E0,-3.906286503E0,-5.664059808E0,8.721625006E-1,6.935511170E0
9.443978917E0,-2.491478709E0,-8.338509589E-1,1.485889179E0,3.018383712E0
9.453899917E0,-1.915046449E0,3.785223119E0,3.613831288E0,5.572709713E0
9.463819917E0,-9.868125124E-1,7.382039595E0,5.813079607E0,9.447761747E0
9.473740917E0,-8.888219489E-1,1.047795317E1,6.734040046E0,1.248698532E1
9.483661917E0,-1.898637408E0,1.326629619E1,5.153261667E0,1.435811772E1
9.493582917E0,-1.915336032E0,1.574212190E1,2.881269307E0,1.611783568E1
9.503503917E0,-1.905259672E0,1.800339105E1,5.377362639E-1,1.811190945E1
9.513424917E0,-2.780405129E0,1.943766394E1,-2.275134069E0,1.976688309E1
9.523344917E0,-3.623421307E0,2.034192063E1,-3.984354726E0,2.104276597E1
9.533265917E0,-3.739410769E0,2.050914632E1,-4.503257693E0,2.132809428E1
9.543186917E0,-3.516175770E0,2.067958097E1,-4.076861771E0,2.136888773E1
9.553107917E0,-2.988017246E0,1.947214847E1,-2.942698401E0,1.991864170E1
9.563028917E0,-2.394593269E0,1.490798267E1,-1.123318539E0,1.514080146E1
9.572949917E0,-2.168948632E0,1.178768972E1,2.492042381E-1,1.198816374E1
9.582869917E0,-1.615533352E0,9.615437992E0,1.061976131E0,9.807873832E0
9.592790917E0,-1.178373583E0,7.323469790E0,1.025876371E0,7.488270587E0
9.602711917E0,-9.483600529E-1,5.586010004E0,2.839682740E-1,5.673053194E0
9.612632917E0,-1.096051949E0,4.280003398E0,-3.789260329E-1,4.434336918E0
9.622553917E0,-1.658692674E0,3.294628277E0,-4.432744950E-1,3.715148604E0
9.632474917E0,-2.222531201E0,2.657205757E0,-1.044985145E-1,3.465733301E0
9.642395917E0,-2.513492306E0,2.573135660E0,-1.479153333E-1,3.600076339E0
9.652315917E0,-2.649401479E0,3.541908197E0,-9.365597869E-1,4.521237232E0
9.662236917E0,-2.642291849E0,4.920764678E0,-1.991304374E0,5.929664775E0
9.672157917E0,-2.569818535E0,6.294076830E0,-2.620846016E0,7.286165266E0
9.682078917E0,-2.436121803E0,7.782451075E0,-2.775849856E0,8.614323920E0
9.691999917E0,-2.230370709E0,9.179149166E0,-2.657799250E0,9.813013286E0
9.701920917E0,-2.162989443E0,1.034933080E1,-2.374020426E0,1.083619603E1
9.711840917E0,-2.185272158E0,1.149606685E1,-2.096194067E0,1.188818729E1
9.721761917E0,-2.478300839E0,1.249248386E1,-1.785030685E0,1.286042233E1
9.731682917E0,-2.870610125E0,1.323088779E1,-1.367927451E0,1.360764563E1
9.741603917E0,-3.604395636E0,1.429790641E1,-8.161362344E-1,1.476779855E1
9.751524917E0,-3.958365607E0,1.477590811E1,6.815689981E-2,1.529708351E1
9.761445917E0,-4.007179332E0,1.476962703E1,2.348578021E-2,1.530359175E1
9.771366917E0,-4.820736945E0,1.467917996E1,-4.528517957E-1,1.545713116E1
9.781286917E0,-5.653847061E0,1.308055237E1,1.381038808E0,1.431691674E1
9.791207917E0,-3.303953417E0,8.567770729E0,4.427604078E0,1.019443384E1
9.801128917E0,7.052560687E-2,2.876044235E0,6.124118151E0,6.766197413E0
9.811049917E0,2.559601987E0,-1.536591555E0,7.761243809E0,8.315622731E0
9.820970917E0,5.461449108E0,-8.925247275E0,7.229116779E0,1.271800278E1
9.830891917E0,1.151499546E1,-4.250400465E1,4.462076923E0,4.426167261E1
9.840812917E0,1.679369920E1,-7.011360270E1,3.180205284E0,7.216688522E1
9.850732917E0,1.455201003E1,-5.004773146E1,-1.254520411E0,5.213549886E1
9.860653917E0,1.392827468E1,-1.441477822E1,-2.929262084E0,2.025742439E1
9.870574917E0,1.510680087E1,-9.488470382E0,-4.081262970E-1,1.784413264E1
9.880495917E0,1.459112557E1,-2.004140883E1,-3.545789579E-1,2.479283646E1
9.890416917E0,1.389310367E1,-2.625756040E1,4.129100795E0,2.999212032E1
9.900337917E0,1.174929690E1,-2.578521765E1,7.088163798E0,2.920899678E1
9.910257917E0,8.447279495E0,-2.211907190E1,6.493465714E0,2.455147592E1
9.920178917E0,5.717119197E0,-1.727307031E1,3.929949308E0,1.861421262E1
9.930099917E0,4.007651787E0,-1.337240444E1,1.559548309E0,1.404687383E1
9.940020917E0,1.951906127E0,-1.041421618E1,1.200281346E-1,1.059623721E1
9.949941917E0,1.984012896E-1,-7.768606623E0,-7.003900158E-1,7.802637894E0
9.959862917E0,-9.123276097E-1,-4.649816984E0,7.188450710E-1,4.792690047E0
9.969783917E0,-1.626264455E0,-1.211244875E0,3.532201819E0,4.072873668E0
9.979703917E0,-2.162575898E0,2.758664305E0,5.178577772E0,6.253369572E0
9.989624917E0,-2.252612348E0,6.554029419E0,4.998651345E0,8.544944663E0
9.999545917E0,-2.261210386E0,1.015809410E1,4.055832844E0,1.116914179E1
1.000946692E1,-2.000438163E0,1.313205581E1,2.444788692E0,1.350665149E1
1.001938792E1,-1.799062833E0,1.540747406E1,5.374801193E-1,1.552146155E1
1.002930892E1,-2.290472046E0,1.714948005E1,-1.245185038E0,1.734651014E1
1.003922892E1,-2.734032032E0,1.782893703E1,-2.904119641E0,1.826964252E1
1.004914992E1,-3.302319997E0,1.805112070E1,-3.855189732E0,1.875128699E1
1.005907092E1,-3.389647286E0,1.856696558E1,-3.551574814E0,1.920509316E1
1.006899192E1,-3.587341940E0,1.890310563E1,-2.861610968E0,1.945212693E1
1.007891292E1,-4.328974999E0,1.716278714E1,-2.212084712E0,1.783801014E1
1.008883375E1,-3.645511795E0,1.136787016E1,-1.634036574E0,1.204941093E1
1.009875375E1,-3.639981206E0,8.495652925E0,-9.248937146E-1,9.288757193E0
1.010867475E1,-3.940671055E0,7.043895698E0,2.294593602E-1,8.074528257E0
1.011859575E1,-3.748234218E0,5.594605411E0,1.207558133E0,6.841568980E0
1.012851675E1,-3.003771399E0,4.431085510E0,1.343022990E0,5.519136904E0
1.013843775E1,-2.374240866E0,4.179463449E0,9.020575601E-1,4.890668896E0
1.014835875E1,-2.073132210E0,4.727068058E0,-2.138648361E-1,5.166119216E0
1.015827975E1,-1.810323255E0,5.505506124E0,-1.483315820E0,5.982315086E0
1.016819975E1,-1.259425347E0,6.428369247E0,-2.018757051E0,6.854594329E0
1.017812075E1,-7.519358531E-1,7.467753929E0,-2.057681820E0,7.782468165E0
1.018804175E1,-5.890565448E-1,8.262934912E0,-2.213689188E0,8.574584584E0
1.019796275E1,-6.699632983E-1,8.869005831E0,-2.549847370E0,9.252558395E0
1.020788375E1,-1.058545131E0,9.537019229E0,-2.744482468E0,9.980352578E0
1.021780475E1,-1.584417686E0,1.014391344E1,-2.586399484E0,1.058767309E1
1.022772475E1,-2.198149774E0,1.065768255E1,-2.198851878E0,1.110193719E1
1.023764575E1,-2.856333271E0,1.102401529E1,-1.657834741E0,1.150808276E1
1.024756675E1,-3.484193839E0,1.127438254E1,-1.130869195E0,1.185454231E1
1.025748775E1,-4.022879399E0,1.142388765E1,-7.828141218E-1,1.213678564E1
1.026740875E1,-4.571707246E0,1.154381171E1,-6.393737358E-1,1.243257394E1
1.027732975E1,-5.097975658E0,1.185654068E1,-6.233389163E-1,1.292112472E1
1.028724975E1,-5.433581278E0,1.220965988E1,-1.149659076E0,1.341347516E1
1.029717075E1,-6.056298051E0,1.229388084E1,-1.225810289E0,1.375939181E1
1.030709175E1,-6.498789604E0,1.187867239E1,9.145384419E-1,1.357105393E1
1.031701275E1,-4.137176677E0,9.037099248E0,4.617045679E0,1.095912882E1
1.032693375E1,-5.722889230E-1,3.667322202E0,6.160136999E0,7.191943729E0
1.033685475E1,1.204103378E0,-3.020718384E-1,7.964016477E0,8.060190493E0
1.034677475E1,3.713507019E0,-3.650229621E0,8.487160429E0,9.957218629E0
1.035669575E1,1.111955528E1,-3.363495263E1,5.471526784E0,3.584539236E1
1.036661675E1,1.914500261E1,-6.968907146E1,4.227084342E0,7.239451669E1
1.037653775E1,1.788572168E1,-5.623853418E1,-2.748960266E0,5.907815628E1
1.038645875E1,1.462539610E1,-2.016593581E1,-7.087377348E0,2.589977019E1
1.039637975E1,1.435922266E1,-1.124786424E1,-2.791080391E0,1.845242139E1
1.040630075E1,1.496774005E1,-1.791652248E1,6.416184819E-1,2.335480024E1
1.041622075E1,1.586459066E1,-2.448445307E1,2.434725341E0,2.927629701E1
1.042614175E1,1.648247530E1,-2.501359802E1,6.809254535E0,3.071999390E1
1.043606275E1,1.400248754E1,-2.232491728E1,8.003264158E0,2.754131126E1
1.044598375E1,9.581848077E0,-1.800027449E1,5.145139884E0,2.103079073E1
1.045590475E1,5.051050583E0,-1.421822991E1,7.405334902E-1,1.510693760E1
1.046582575E1,1.198183657E0,-1.119013234E1,-2.337304735E0,1.149424636E1
1.047574575E1,-2.201992418E0,-8.094128720E0,-2.642777168E0,8.794768985E0
1.048566675E1,-3.410342629E0,-5.496965096E0,-1.985692362E0,6.766833548E0
1.049558775E1,-4.663688626E0,-1.909246303E0,-5.125160533E-1,5.065361364E0
1.050550875E1,-5.283978512E0,2.339922972E0,2.078634440E0,6.141367076E0
1.051542975E1,-4.394557369E0,6.113006102E0,3.847859078E0,8.454998378E0
1.052535075E1,-3.433245588E0,9.771316575E0,4.582716676E0,1.132550639E1
1.053527075E1,-2.638435611E0,1.314276323E1,4.205906897E0,1.404931389E1
1.054519175E1,-2.196883705E0,1.587563255E1,3.057236584E0,1.631590335E1
1.055511275E1,-2.287149512E0,1.776549241E1,1.374792082E0,1.796479409E1
1.056503375E1,-2.638324513E0,1.857446522E1,-7.577173606E-1,1.877619903E1
1.057495475E1,-3.326930636E0,1.870703914E1,-2.446436437E0,1.915742237E1
1.058487575E1,-3.532642699E0,1.857040140E1,-2.999643264E0,1.913993815E1
1.059479575E1,-3.336485571E0,1.786892263E1,-2.735757253E0,1.838246175E1
1.060471675E1,-2.536086532E0,1.488408978E1,-2.188352033E0,1.525636746E1
1.061463775E1,-1.955736930E0,1.140560926E1,-1.710935646E0,1.169786862E1
1.062455875E1,-2.283627588E0,9.401971936E0,-1.484108702E0,9.788493750E0
1.063447975E1,-2.693232792E0,8.098932207E0,-8.636150408E-1,8.578580110E0
1.064440075E1,-3.100702447E0,7.034482266E0,-3.365283108E-1,7.694904009E0
1.065432175E1,-3.593378605E0,5.993104268E0,-1.267774294E-1,6.988972820E0
1.066424175E1,-4.080063414E0,5.340670776E0,-1.373206902E-1,6.722242094E0
1.067416275E1,-4.443815483E0,5.427852176E0,-3.333608741E-1,7.022834525E0
1.068408375E1,-4.390006481E0,6.145482123E0,-3.829819541E-1,7.562128180E0
1.069400475E1,-3.715375205E0,6.926765444E0,-2.684597039E-1,7.864868914E0
1.070392575E1,-3.038808207E0,7.548492867E0,-4.295621896E-1,8.148535056E0
1.071384675E1,-2.415111734E0,8.128015088E0,-6.708276629E-1,8.505727701E0
1.072376675E1,-2.062322901E0,8.773203880E0,-9.769508909E-1,9.065137347E0
1.073368775E1,-1.901000268E0,9.417491031E0,-1.547342977E0,9.731249130E0
1.074360875E1,-1.193937848E0,9.934138727E0,-2.049747587E0,1.021342572E1
1.075352975E1,-5.696760947E-1,1.049440724E1,-2.143083328E0,1.072613259E1
1.076345075E1,-1.756161520E-1,1.109836380E1,-1.958200362E0,1.127116093E1
1.077337175E1,-1.171825871E-1,1.154756328E1,-2.368144997E0,1.178847150E1
1.078329175E1,-4.724032769E-1,1.185090981E1,-2.274949735E0,1.207653197E1
1.079321275E1,-1.162955352E0,1.175888165E1,-1.923331661E0,1.197175708E1
1.080313375E1,-1.703961672E0,1.171211329E1,-1.441960802E0,1.192293311E1
1.081305475E1,-1.985153688E0,1.179723003E1,-9.824817722E-1,1.200336378E1
1.082297575E1,-2.246050310E0,1.224734636E1,-3.884423033E-1,1.245765316E1
1.083289675E1,-2.399053818E0,1.196988194E1,1.847665182E0,1.234695912E1
1.084281675E1,-6.249577180E-1,9.166291139E0,6.266363951E0,1.112109628E1
1.085273775E1,1.723786949E0,1.928123454E0,8.486733583E0,8.872076893E0
1.086265875E1,3.550328480E0,-3.978212811E0,7.178650630E0,8.942261143E0
1.087257975E1,7.027813516E0,-1.217731308E1,5.102555197E0,1.495704471E1
1.088250075E1,1.064988938E1,-3.824295150E1,2.226366682E0,3.976053561E1
1.089242175E1,1.008567049E1,-6.841541223E1,3.015476355E0,6.922053509E1
1.090234175E1,5.779918878E0,-5.420832477E1,1.064478008E0,5.452598509E1
1.091226275E1,8.182828642E0,-1.785932618E1,6.731786822E-1,1.965623020E1
1.092218375E1,1.401992276E1,-1.225318422E1,5.859708229E0,1.952011625E1
1.093210475E1,1.547122391E1,-2.158508780E1,5.682893690E0,2.715824120E1
1.094202575E1,1.435955945E1,-2.546872190E1,7.443554057E0,3.017050281E1
1.095194675E1,1.057708453E1,-2.742969559E1,8.074838755E0,3.048714382E1
1.096186675E1,7.196115094E0,-2.426622095E1,4.145771792E0,2.564802088E1
1.097178775E1,4.723188138E0,-1.838440264E1,-3.771692370E-1,1.898517904E1
1.098170875E1,2.602405068E0,-1.403462500E1,-1.943052565E0,1.440550813E1
1.099162975E1,1.076394634E0,-1.028664865E1,-2.651262063E0,1.067721669E1
1.100155075E1,-4.801438209E-1,-6.554496027E0,-2.843606222E0,7.160869542E0
1.101147175E1,-1.913057811E0,-3.018396454E0,-1.646698135E0,3.934732785E0
1.102139175E1,-2.711232276E0,2.324484569E-1,4.449303534E-1,2.757313141E0
1.103131275E1,-2.766410696E0,3.341251051E0,2.300504553E0,4.910123005E0
1.104123375E1,-2.024662885E0,6.654155386E0,3.862608680E0,7.955927948E0
1.105115475E1,-1.217551536E0,1.070212139E1,5.084708326E0,1.191100721E1
1.106107575E1,1.387304538E-1,1.401305579E1,5.513146681E0,1.505920865E1
1.107099675E1,1.103646459E0,1.615748354E1,3.680977789E0,1.660818796E1
1.108091675E1,7.409983438E-1,1.784991684E1,6.120801026E-1,1.787577277E1
1.109083900E1,-8.836331297E-1,1.861165819E1,-2.203444866E0,1.876245712E1
1.110076000E1,-1.871851020E0,1.873522856E1,-3.671985356E0,1.918322423E1
1.111068100E1,-2.203718369E0,1.876517800E1,-4.015446711E0,1.931610966E1
1.112060200E1,-2.079138908E0,1.827236414E1,-4.263322461E0,1.887797734E1
1.113052300E1,-1.548320047E0,1.768137436E1,-3.853453694E0,1.816252735E1
1.114044300E1,-2.053601340E0,1.539787059E1,-3.151734021E0,1.585071369E1
1.115036400E1,-3.594804448E0,1.154949520E1,-1.849119385E0,1.223653141E1
1.116028500E1,-4.497550811E0,9.481281815E0,-3.333363888E-1,1.049922765E1
1.117020600E1,-5.198958827E0,7.370418838E0,1.124272951E0,9.089347413E0
1.118012700E1,-5.580867963E0,5.080987158E0,1.968454624E0,7.799828929E0
1.119004800E1,-5.079745209E0,3.776079828E0,1.797217745E0,6.579709863E0
1.119996900E1,-4.084037474E0,3.749993060E0,1.047386597E0,5.642590604E0
1.120988900E1,-3.182491545E0,4.297013533E0,2.178842121E-1,5.351640054E0
1.121981000E1,-2.636346985E0,4.988226344E0,-6.294387317E-1,5.677052105E0
1.122973100E1,-2.120716120E0,5.726113384E0,-1.390235017E0,6.262472735E0
1.123965200E1,-1.512181915E0,6.526884890E0,-2.128920348E0,7.029880679E0
1.124957300E1,-1.113205049E0,7.542050990E0,-3.034893789E0,8.205628490E0
1.125949400E1,-1.066169169E0,8.456996983E0,-3.783500530E0,9.325898934E0
1.126941400E1,-1.396311882E0,9.545936233E0,-3.707163375E0,1.033526225E1
1.127933500E1,-1.759762966E0,1.050164960E1,-2.959815540E0,1.105178348E1
1.128925600E1,-1.963232184E0,1.112638834E1,-2.049008206E0,1.148256211E1
1.129917700E1,-2.323950426E0,1.166079227E1,-1.149941570E0,1.194559281E1
1.130909800E1,-2.815880187E0,1.197799437E1,-4.493949218E-1,1.231273674E1
1.131901900E1,-3.456481546E0,1.220509671E1,4.260219929E-1,1.269224745E1
1.132893900E1,-3.812150424E0,1.224740483E1,8.653750527E-1,1.285613822E1
1.133886000E1,-3.654217714E0,1.220887986E1,1.539260517E-1,1.274494990E1
1.134878100E1,-3.488770455E0,1.236176233E1,-6.290697724E-1,1.286003173E1
1.135870200E1,-3.666354488E0,1.204918422E1,1.439658169E0,1.267665615E1
1.136862300E1,-1.587867251E0,7.462185041E0,5.852471715E0,9.615453872E0
1.137854300E1,9.356933758E-1,5.692983645E-1,6.567137123E0,6.657845951E0
1.138846400E1,2.073116569E0,-1.879930703E0,6.893690668E0,7.440088896E0
1.139838500E1,4.581541093E0,-6.665362160E0,6.519261290E0,1.038837520E1
1.140830600E1,1.086101362E1,-4.038449189E1,4.325926553E0,4.204262650E1
1.141822700E1,1.590003649E1,-7.024769573E1,6.117958694E0,7.228401852E1
1.142814800E1,1.277630887E1,-4.870917749E1,-8.313936666E-1,5.036376928E1
1.143806800E1,1.413929718E1,-1.908190179E1,-5.932836431E0,2.447932289E1
1.144798900E1,1.406113745E1,-1.649543741E1,-3.754327601E-1,2.167846838E1
1.145791000E1,1.187120433E1,-2.339666981E1,1.993810783E0,2.631168812E1
1.146783100E1,1.095301839E1,-2.689757090E1,6.564247429E0,2.977477584E1
1.147775200E1,1.096413161E1,-2.692258763E1,1.119788809E1,3.115173517E1
1.148767300E1,1.018963398E1,-2.342637133E1,9.923888558E0,2.740633282E1
1.149759400E1,7.591925400E0,-1.871267819E1,4.196663033E0,2.062555786E1
1.150751400E1,4.523330892E0,-1.518402505E1,-1.256768957E0,1.589322520E1
1.151743500E1,1.301536702E0,-1.150551712E1,-4.267693840E0,1.234034573E1
1.152735600E1,-5.275483677E-1,-7.661622457E0,-3.684939278E0,8.518071579E0
1.153727700E1,-1.938937587E0,-4.018687238E0,-1.327606075E0,4.655304928E0
1.154719800E1,-2.774712573E0,-4.950492507E-1,-8.213298775E-2,2.819725066E0
1.155711900E1,-3.196568132E0,3.777923455E0,2.572538660E0,5.577518141E0
1.156703900E1,-2.928152867E0,7.909366645E0,4.709923437E0,9.659996828E0
1.157696000E1,-2.356789704E0,1.157443007E1,5.137899862E0,1.288099003E1
1.158688100E1,-1.797047298E0,1.446418368E1,3.963845032E0,1.510476932E1
1.159680200E1,-1.236508209E0,1.664681012E1,2.062628710E0,1.681962179E1
1.160672300E1,-9.725075917E-1,1.815070697E1,1.437679032E-1,1.817731014E1
1.161664400E1,-1.266466711E0,1.843328536E1,-1.664821579E0,1.855159233E1
1.162656400E1,-1.793283738E0,1.855674464E1,-2.617402591E0,1.882603077E1
1.163648500E1,-2.004977941E0,1.860499587E1,-3.050988835E0,1.895980856E1
1.164640600E1,-2.069846659E0,1.843288658E1,-3.188057510E0,1.882071422E1
1.165632700E1,-2.246558433E0,1.749891083E1,-2.206931414E0,1.778002956E1
1.166624800E1,-2.942138237E0,1.367667951E1,-4.001548610E-1,1.399528005E1
1.167616800E1,-3.119047209E0,1.049066268E1,1.212206157E0,1.101144417E1
1.168608900E1,-3.005657418E0,8.032246467E0,2.045427810E0,8.816730389E0
1.169601000E1,-3.062295011E0,5.728251711E0,2.038825865E0,6.807887286E0
1.170593100E1,-3.107067141E0,4.227845650E0,9.518144417E-1,5.332400565E0
1.171585200E1,-3.111523889E0,3.188556277E0,-7.157148372E-1,4.512285427E0
1.172577300E1,-2.900711299E0,2.956818257E0,-2.026604599E0,4.611293360E0
1.173569300E1,-2.892053327E0,4.097990100E0,-2.305733133E0,5.520317073E0
1.174561400E1,-2.814014633E0,5.462803323E0,-2.212646629E0,6.531209965E0
1.175553500E1,-2.281822553E0,6.555302943E0,-2.390773868E0,7.341288070E0
1.176545600E1,-1.713400247E0,7.776296296E0,-2.570418459E0,8.367411520E0
1.177537700E1,-1.408131736E0,8.993681917E0,-2.703244395E0,9.496140251E0
1.178529800E1,-1.291906046E0,1.010681987E1,-2.692212453E0,1.053873033E1
1.179521800E1,-1.198644856E0,1.071374097E1,-2.495988082E0,1.106575581E1
1.180513900E1,-1.279238638E0,1.097260657E1,-2.430772916E0,1.131119814E1
1.181506000E1,-1.615326361E0,1.116979339E1,-2.385072394E0,1.153525613E1
1.182498100E1,-2.160431286E0,1.115441404E1,-2.242088091E0,1.158081927E1
1.183490200E1,-2.747242061E0,1.099821971E1,-1.876662548E0,1.149043246E1
1.184482300E1,-3.242913163E0,1.084743171E1,-1.691887171E0,1.144752125E1
1.185474300E1,-3.676186873E0,1.093607784E1,-1.635611814E0,1.165278398E1
1.186466400E1,-4.359338712E0,1.113710161E1,-1.392880297E0,1.204072181E1
1.187458500E1,-4.771274763E0,1.109113664E1,-1.306938506E0,1.214440049E1
1.188450600E1,-5.044208756E0,1.070136593E1,-1.394299563E0,1.191248698E1
1.189442700E1,-4.795116785E0,9.959588149E0,-8.041792631E-2,1.105409463E1
1.190434800E1,-2.891700740E0,7.974796404E0,3.295407127E0,9.100495535E0
1.191426800E1,2.744554389E-1,3.530913677E0,5.576685449E0,6.606216602E0
1.192418900E1,2.620794853E0,-4.095916092E-1,7.262912516E0,7.732155532E0
1.193411000E1,5.549580097E0,-3.896607900E0,7.926524715E0,1.043126006E1
1.194403100E1,1.184469656E1,-2.668805347E1,5.601413324E0,2.973087395E1
1.195395200E1,1.871539481E1,-6.560731732E1,4.921189771E0,6.840178505E1
1.196387300E1,1.593651843E1,-6.553420841E1,-3.319066715E-1,6.744490532E1
1.197379300E1,1.479825266E1,-3.337892177E1,-6.831658727E-1,3.651859000E1
1.198371400E1,1.596710171E1,-1.487728947E1,6.578728058E0,2.279389703E1
1.199363500E1,1.642568831E1,-1.144371205E1,1.002476355E1,2.238878439E1
1.200355600E1,1.593987006E1,-1.775175145E1,8.197696942E0,2.522709599E1
1.201347700E1,1.512504652E1,-2.110031620E1,7.116049755E0,2.691892531E1
1.202339800E1,1.203332774E1,-2.189133455E1,4.616228823E0,2.540356418E1
1.203331800E1,6.756955869E0,-2.134992682E1,1.952643753E0,2.247862641E1
1.204323900E1,1.567639394E0,-1.872955326E1,-1.088321199E0,1.882652654E1
1.205316000E1,-2.274806917E0,-1.585377331E1,-3.934675028E0,1.649237831E1
1.206308100E1,-4.911007429E0,-1.202605965E1,-4.093424009E0,1.361984672E1
1.207300200E1,-4.142334506E0,-7.768691992E0,-3.120351430E0,9.340669327E0
1.208292300E1,-2.802797334E0,-3.021168619E0,-2.525604814E0,4.833405880E0
1.209284250E1,-2.236567442E0,2.246273966E0,-6.116533289E-1,3.228327810E0
1.210276350E1,-1.432854202E0,6.649587541E0,2.406761910E0,7.215440979E0
1.211268450E1,-4.160967828E-1,1.071702477E1,4.405878164E0,1.159480568E1
1.212260550E1,-6.068904063E-1,1.530716624E1,4.816629860E0,1.605856711E1
1.213252650E1,-1.164463788E0,1.915553695E1,4.201222692E0,1.964537716E1
1.214244750E1,-1.834121861E0,2.195079839E1,2.195181581E0,2.213640385E1
1.215236750E1,-2.774767244E0,2.259492299E1,-4.536340070E-1,2.276918229E1
1.216228850E1,-3.111825020E0,2.161052786E1,-2.700468137E0,2.199979313E1
1.217220950E1,-3.088912706E0,2.099194390E1,-3.369527017E0,2.148387309E1
1.218213050E1,-3.198850008E0,2.074759578E1,-2.826809510E0,2.118221480E1
1.219205150E1,-3.166085427E0,1.751830838E1,-1.708204411E0,1.788388067E1
1.220197150E1,-2.933403959E0,1.201949673E1,-5.286086871E-1,1.238356119E1
1.221189250E1,-3.004038616E0,9.156666037E0,2.846909899E-1,9.641049210E0
1.222181350E1,-2.947080889E0,6.648826818E0,3.710135807E-1,7.282158671E0
1.223173450E1,-2.994922222E0,3.990313039E0,-3.432413529E-1,5.000997090E0
1.224165550E1,-3.479873917E0,2.397715098E0,-1.256946713E0,4.408908618E0
1.225157650E1,-4.033310539E0,1.660113401E0,-1.463036506E0,4.600439786E0
1.226149650E1,-4.523941341E0,2.231270596E0,-8.624034977E-1,5.117455767E0
1.227141750E1,-4.212003204E0,3.293508536E0,-5.076979476E-1,5.370840406E0
1.228133850E1,-3.649036789E0,4.418856059E0,-3.817495072E-1,5.743473778E0
1.229125950E1,-2.913961967E0,5.740262477E0,-5.333461744E-1,6.459585574E0
1.230118050E1,-2.030012941E0,7.118841215E0,-1.062003466E0,7.478415885E0
1.231110150E1,-1.307373101E0,8.474501207E0,-1.849683787E0,8.771985252E0
1.232102150E1,-8.874985778E-1,9.519862329E0,-2.649781548E0,9.921530867E0
1.233094250E1,-7.984372973E-1,1.020857662E1,-3.232886943E0,1.073797452E1
1.234086350E1,-9.371918710E-1,1.099444942E1,-3.147358550E0,1.147441121E1
1.235078450E1,-1.138039197E0,1.167346202E1,-2.511118337E0,1.199460562E1
1.236070550E1,-1.242799959E0,1.226330224E1,-1.883924351E0,1.246925437E1
1.237062650E1,-1.091383386E0,1.296989030E1,-1.241512402E0,1.307480498E1
1.238054650E1,-1.213078416E0,1.368709223E1,-7.757202067E-1,1.376262311E1
1.239046750E1,-1.668486030E0,1.411796654E1,-8.624789268E-1,1.424235566E1
1.240038850E1,-2.097534980E0,1.426652675E1,-9.433038193E-1,1.445071834E1
1.241030950E1,-3.433273362E0,1.426606949E1,-4.505116669E-1,1.468029514E1
1.242023050E1,-4.315570257E0,1.361326997E1,8.634536576E-1,1.430701989E1
1.243015150E1,-3.210825398E0,1.080326535E1,3.664070565E0,1.185096431E1
1.244007150E1,2.189343721E-2,5.052742767E0,6.090415969E0,7.913523582E0
1.244999250E1,1.401103967E0,-1.182821560E-1,7.419728408E0,7.551784732E0
1.245991350E1,3.287770078E0,-2.678020676E0,9.568951458E0,1.046642531E1
1.246983450E1,6.869455129E0,-1.172202315E1,7.819187377E0,1.567593479E1
1.247975550E1,1.403500975E1,-5.426977667E1,6.233344724E0,5.640075128E1
1.248967650E1,1.878440248E1,-6.701178110E1,6.185451350E0,6.986910899E1
1.249959650E1,1.414065023E1,-2.700744476E1,-3.802363063E0,3.072162148E1
1.250951750E1,1.061487625E1,-9.300935558E0,-3.946657142E0,1.465466147E1
1.251943850E1,8.808716944E0,-1.936802243E1,8.815189227E-2,2.127725447E1
1.252935950E1,9.228028965E0,-2.897125085E1,4.464663146E0,3.073146777E1
1.253928050E1,8.469763209E0,-3.001520338E1,8.316594225E0,3.227716007E1
1.254920050E1,7.841688048E0,-2.734650141E1,9.748576169E0,3.007254475E1
1.255912150E1,7.486879587E0,-2.319359367E1,7.162601777E0,2.540273642E1
1.256904250E1,6.698166794E0,-1.922172977E1,2.551127325E0,2.051459442E1
1.257896350E1,5.540150877E0,-1.651818307E1,-2.702438356E-1,1.742459972E1
1.258888450E1,4.569447297E0,-1.323452944E1,-9.740901406E-1,1.403500871E1
1.259880550E1,3.424494352E0,-9.421923221E0,-4.274982686E-1,1.003406964E1
1.260872650E1,1.169280578E0,-5.478801305E0,1.360170973E0,5.764941100E0
1.261864650E1,-9.690486713E-1,-1.904897729E0,2.811265857E0,3.531417053E0
1.262856750E1,-1.941118599E0,1.983481969E0,3.907876654E0,4.793082732E0
1.263848850E1,-2.666248769E0,6.164990188E0,4.703482729E0,8.199922945E0
1.264840950E1,-2.524889992E0,1.004105390E1,3.978910384E0,1.109186912E1
1.265833050E1,-2.112007131E0,1.307356494E1,1.926283336E0,1.338242287E1
1.266825050E1,-1.873842874E0,1.526729759E1,-4.118351859E-1,1.538737375E1
1.267817150E1,-1.831969063E0,1.702247502E1,-2.031089998E0,1.724082634E1
1.268809250E1,-1.951679255E0,1.800638950E1,-3.145688585E0,1.838299409E1
1.269801350E1,-2.420126013E0,1.848781533E1,-4.045217809E0,1.907931112E1
1.270793450E1,-2.926574703E0,1.884247819E1,-4.330989949E0,1.955406091E1
1.271785550E1,-3.265613809E0,1.921255666E1,-3.919364094E0,1.987832945E1
1.272777550E1,-3.749089958E0,1.784801182E1,-2.838706255E0,1.845712477E1
1.273769650E1,-3.747344856E0,1.261492104E1,-1.183589226E0,1.321286153E1
1.274761750E1,-4.621649192E0,9.670114721E0,8.159485388E-1,1.074879212E1
1.275753850E1,-5.494826185E0,7.415865152E0,2.173621581E0,9.482236104E0
1.276745950E1,-5.505996705E0,5.572204728E0,2.188917312E0,8.133684543E0
1.277737950E1,-4.618290551E0,4.747060273E0,1.719065030E0,6.842395299E0
1.278730050E1,-3.207056283E0,4.103186520E0,1.061895293E0,5.314976127E0
1.279722150E1,-1.904032341E0,3.577735841E0,-3.439601219E-1,4.067412134E0
1.280714250E1,-1.155083246E0,3.512736438E0,-1.881510621E0,4.148929597E0
1.281706350E1,-1.062851751E0,4.472097881E0,-2.708216282E0,5.335142803E0
1.282698450E1,-7.413898149E-1,6.213906825E0,-3.026859714E0,6.951559294E0
1.283690450E1,-8.558642641E-2,7.597822317E0,-3.345390880E0,8.302160511E0
1.284682550E1,2.375320262E-1,8.517362468E0,-3.682502158E0,9.282386924E0
1.285674650E1,-2.945300996E-2,9.197900017E0,-3.718097084E0,9.921011951E0
1.286666750E1,-4.350305057E-1,9.482978677E0,-3.494614747E0,1.011575347E1
1.287658850E1,-8.996274573E-1,9.875381227E0,-3.084001045E0,1.038477474E1
1.288650950E1,-1.499363503E0,1.052235693E1,-2.180659436E0,1.085003971E1
1.289642950E1,-1.923828236E0,1.114375808E1,-1.061686036E0,1.135832894E1
1.290635050E1,-2.186672713E0,1.189593337E1,-2.512894282E-1,1.209784753E1
1.291627150E1,-2.612576884E0,1.314686564E1,2.111925855E-1,1.340560466E1
1.292619250E1,-3.298187478E0,1.449305490E1,1.689390410E0,1.495930215E1
1.293611350E1,-3.874884032E0,1.529725170E1,3.621982307E0,1.619071931E1
1.294603450E1,-3.363383347E0,1.508597192E1,4.007178748E0,1.596735350E1
1.295595450E1,-2.884966794E0,1.420527014E1,2.894794502E0,1.478149412E1
1.296587550E1,-2.765888832E0,1.140576128E1,2.224617634E0,1.194531101E1
1.297579650E1,-1.668254480E0,7.352826321E0,3.357342589E0,8.253416091E0
1.298571750E1,2.847778210E-1,2.332565421E0,6.294923506E0,6.719227768E0
1.299563850E1,2.334283625E0,-2.306578640E0,8.837612130E0,9.427225108E0
1.300555850E1,5.658006771E0,-9.154011986E0,7.362722733E0,1.303912045E1
1.301547950E1,1.306162610E1,-4.564852964E1,2.790273768E0,4.756237970E1
1.302540050E1,2.107063807E1,-6.983504602E1,3.245863668E0,7.301671776E1
1.303532150E1,1.675002517E1,-3.899705053E1,-4.216399725E0,4.265104125E1
1.304524250E1,9.207238020E0,-1.493539793E1,-5.441950983E0,1.836992580E1
1.305516350E1,2.677858416E0,-1.754929628E1,-1.798196422E0,1.784326865E1
1.306508350E1,5.353187326E-1,-2.544375662E1,2.932712526E0,2.561780865E1
1.307500450E1,1.773687087E0,-2.862884959E1,7.585145554E0,2.966970556E1
1.308492563E1,4.873693130E0,-2.806283210E1,9.758043981E0,3.010805295E1
1.309484662E1,8.970877191E0,-2.563400631E1,7.726706645E0,2.823616321E1
1.310476762E1,9.937616651E0,-2.099466871E1,2.302424047E0,2.334166865E1
1.311468862E1,7.355596731E0,-1.602154864E1,-3.535881472E0,1.798046946E1
1.312460862E1,3.762528614E0,-1.223243829E1,-5.512625694E0,1.393478418E1
1.313452962E1,7.986450197E-1,-8.231371057E0,-4.515528075E0,9.422488904E0
1.314445062E1,-1.482610061E0,-3.987696995E0,-2.491854100E0,4.930435759E0
1.315437162E1,-2.710365134E0,-5.184667647E-2,-1.376195560E-1,2.714351926E0
1.316429262E1,-1.986996291E0,3.860776162E0,2.192125241E0,4.864068247E0
1.317421263E1,-9.195677783E-1,7.647218426E0,4.405786947E0,8.873359746E0
1.318413363E1,1.854451753E-1,1.118784491E1,4.713851012E0,1.214177314E1
1.319405462E1,3.019892465E-1,1.440572439E1,3.277905825E0,1.477703486E1
1.320397562E1,-1.882107621E-1,1.713267866E1,1.393796117E0,1.719031032E1
1.321389662E1,-1.077257829E0,1.921940609E1,-5.235684603E-1,1.925669179E1
1.322381762E1,-1.884119356E0,2.034685802E1,-2.221282382E0,2.055428502E1
1.323373762E1,-2.250595936E0,2.123130786E1,-2.697642177E0,2.152001136E1
1.324365862E1,-2.679445058E0,2.163483357E1,-1.684834260E0,2.186513471E1
1.325357962E1,-3.690071964E0,2.007213010E1,1.371324098E-1,2.040896478E1
1.326350062E1,-4.627977049E0,1.455530318E1,1.816771418E0,1.538101690E1
1.327342163E1,-4.842818078E0,1.055226427E1,2.420365311E0,1.186007320E1
1.328334263E1,-5.022117975E0,8.106883251E0,2.004337233E0,9.744772586E0
1.329326262E1,-4.583469505E0,6.578183098E0,1.240474522E0,8.112919487E0
1.330318362E1,-3.480971731E0,4.913277318E0,2.229811569E-1,6.025543859E0
1.331310462E1,-2.201034205E0,3.251592185E0,-5.527326179E-1,3.965213318E0
1.332302562E1,-1.090645029E0,2.411335017E0,-8.215542644E-1,2.771099882E0
1.333294662E1,-2.923442642E-1,2.594945775E0,-1.482638712E0,3.002902978E0
1.334286662E1,-1.585908142E-1,4.008037704E0,-2.162496815E0,4.556962777E0
1.335278762E1,-2.659446703E-1,5.781539142E0,-2.542392755E0,6.321446221E0
1.336270862E1,2.715674990E-1,7.103574135E0,-3.063434633E0,7.740745840E0
1.337262963E1,6.066372219E-1,8.276247268E0,-3.690359062E0,9.082016712E0
1.338255063E1,2.887018874E-2,9.344813649E0,-4.139905865E0,1.022082170E1
1.339247163E1,-2.512539795E-1,9.821271093E0,-4.361504813E0,1.074910316E1
1.340239162E1,-6.506945300E-1,1.053156044E1,-3.366039153E0,1.107553106E1
1.341231262E1,-1.131321331E0,1.116707209E1,-1.758906203E0,1.136121200E1
1.342223362E1,-1.902739522E0,1.195288525E1,1.674286614E-1,1.210454113E1
1.343215462E1,-3.028636099E0,1.289923138E1,1.373536685E0,1.332101384E1
1.344207562E1,-3.945654345E0,1.341071774E1,1.883663566E0,1.410545025E1
1.345199562E1,-4.586204832E0,1.338528703E1,2.120765821E0,1.430723003E1
1.346191662E1,-4.778073028E0,1.346558333E1,1.374910195E0,1.435417341E1
1.347183763E1,-4.769719403E0,1.304595439E1,-8.830874383E-2,1.389082242E1
1.348175863E1,-4.648965045E0,1.223361475E1,-6.611728866E-1,1.310386796E1
1.349167963E1,-4.022467755E0,1.098203696E1,-2.154020691E-1,1.169751173E1
1.350160062E1,-2.469881726E0,8.538030036E0,1.273890190E0,8.978923591E0
1.351152062E1,-3.772135296E-1,3.761590428E0,3.163146032E0,4.929233755E0
1.352144162E1,1.561551273E0,-1.882659599E0,4.823060043E0,5.407842243E0
1.353136262E1,4.092298128E0,-5.390320069E0,5.194257081E0,8.531281324E0
1.354128362E1,9.038523045E0,-2.468610015E1,1.458033628E0,2.632915307E1
1.355120462E1,1.723572297E1,-6.182905239E1,3.272670813E0,6.426983927E1
1.356112463E1,1.918880878E1,-6.194769941E1,6.324124501E0,6.515920806E1
1.357104563E1,1.659637087E1,-2.389615535E1,1.407349378E0,2.912810325E1
1.358096663E1,1.362120581E1,-9.195696201E0,8.480094069E-1,1.645652443E1
1.359088763E1,8.063083513E0,-1.474189251E1,2.709454430E0,1.701992520E1
1.360080862E1,5.249194595E0,-2.345319134E1,8.796024393E0,2.559250423E1
1.361072962E1,3.810379303E0,-2.770827566E1,1.399823076E1,3.127647670E1
1.362064962E1,2.706475858E0,-2.833912474E1,1.392429155E1,3.169095924E1
1.363057062E1,2.653115338E0,-2.477194195E1,9.420858443E0,2.663532810E1
1.364049162E1,4.104386661E0,-2.079144522E1,3.779926127E0,2.152714625E1
1.365041262E1,4.181103008E0,-1.768719351E1,-1.076799846E0,1.820653549E1
1.366033362E1,3.868613185E0,-1.463065976E1,-3.285143509E0,1.548594656E1
1.367025463E1,3.407373120E0,-1.096327558E1,-2.909464581E0,1.184350401E1
1.368017463E1,2.435965390E0,-7.236852645E0,-1.955739854E0,7.882314506E0
1.369009563E1,1.595145281E0,-2.674236358E0,2.262498236E-1,3.122053418E0
1.370001662E1,1.310167046E0,2.053335146E0,2.527832018E0,3.510364315E0
1.370993762E1,1.109421462E0,6.528183557E0,4.434351765E0,7.969408517E0
1.371985862E1,8.551210830E-1,1.037995150E1,4.982227101E0,1.154544118E1
1.372977862E1,-1.081496622E-1,1.387537959E1,4.176045751E0,1.449059051E1
1.373969962E1,-1.631507361E0,1.678504064E1,2.373416993E0,1.703034098E1
1.374962062E1,-2.557553415E0,1.821342772E1,-9.227495589E-3,1.839212097E1
1.375954162E1,-3.036209997E0,1.853163670E1,-1.849413500E0,1.886956439E1
1.376946263E1,-3.710894776E0,1.873388721E1,-2.707660797E0,1.928887496E1
1.377938363E1,-4.229092276E0,1.879137470E1,-2.789090876E0,1.946227151E1
1.378930363E1,-4.782072231E0,1.909930779E1,-2.646186095E0,1.986590228E1
1.379922462E1,-5.844693748E0,1.877633800E1,-2.273229046E0,1.979593099E1
1.380914562E1,-6.098890924E0,1.414856736E1,-1.108402365E0,1.544690858E1
1.381906662E1,-5.271399981E0,9.226271877E0,-1.820507935E-1,1.062755348E1
1.382898762E1,-5.240577554E0,7.127502111E0,4.932552519E-1,8.860487582E0
1.383890762E1,-4.859508662E0,5.809736170E0,9.545292308E-1,7.634067386E0
1.384882862E1,-3.840253312E0,5.323562407E0,9.886642525E-1,6.638171376E0
1.385874962E1,-2.549763755E0,5.009575113E0,9.403843776E-1,5.699250898E0
1.386867063E1,-1.471193811E0,5.040701596E0,5.496884843E-1,5.279700866E0
1.387859163E1,-8.914279068E-1,5.330350440E0,-3.213675769E-1,5.413922483E0
1.388851263E1,-5.349179059E-1,5.885620750E0,-1.260055677E0,6.042715373E0
1.389843262E1,-4.013286164E-1,6.797614483E0,-1.873479470E0,7.062474966E0
1.390835362E1,-4.495617136E-1,7.603295896E0,-2.397844906E0,7.985103281E0
1.391827462E1,-6.564404427E-1,8.117198909E0,-3.050691796E0,8.696352834E0
1.392819562E1,-9.675191858E-1,8.616924763E0,-3.503689626E0,9.352182993E0
1.393811662E1,-1.362251266E0,9.241389268E0,-3.364499581E0,9.928688813E0
1.394803662E1,-1.887151283E0,9.788212690E0,-2.548065138E0,1.028897874E1
1.395795762E1,-2.415737678E0,1.022487398E1,-1.410931967E0,1.060068703E1
1.396787863E1,-2.980054800E0,1.066226443E1,-4.082701385E-1,1.107841567E1
1.397779963E1,-3.345523320E0,1.102563380E1,4.025971699E-1,1.152905943E1
1.398772063E1,-3.756078842E0,1.142976294E1,1.036443460E0,1.207567075E1
1.399764162E1,-4.060031438E0,1.178720323E1,1.232955587E0,1.252765719E1
1.400756162E1,-4.223822765E0,1.225072137E1,1.106169752E0,1.300555513E1
1.401748262E1,-4.157501014E0,1.266785121E1,9.254722966E-1,1.336472102E1
1.402740362E1,-4.048539612E0,1.267305757E1,4.633571226E-1,1.331209078E1
1.403732462E1,-3.884840086E0,1.226516633E1,4.607850055E-1,1.287395085E1
1.404724562E1,-3.586839664E0,1.053353914E1,2.078008495E0,1.131984916E1
1.405716562E1,-1.656794522E0,5.258453661E0,4.120028256E0,6.882654707E0
1.406708663E1,1.884773952E-1,-6.357367676E-1,4.533669646E0,4.581904127E0
1.407700763E1,1.584583455E0,-1.839572636E0,5.606436667E0,6.109587901E0
1.408692887E1,5.210161507E0,-1.124866999E1,4.130991785E0,1.306688381E1
1.409684987E1,1.685642813E1,-5.883148430E1,5.357949883E0,6.143281160E1
1.410677087E1,2.387111991E1,-6.567299792E1,1.129408180E1,7.078367966E1
1.411669088E1,1.951599324E1,-2.052976594E1,2.963433504E0,2.848029529E1
1.412661188E1,1.545070720E1,1.024797633E0,6.746514496E-1,1.549934572E1
1.413653288E1,1.056869728E1,-1.254226471E1,3.457390788E0,1.676184111E1
1.414645388E1,8.230185242E0,-2.603867105E1,7.382382241E0,2.828865333E1
1.415637487E1,6.472164892E0,-3.090807788E1,7.344760087E0,3.242134633E1
1.416629487E1,4.988587117E0,-3.032837323E1,4.830836256E0,3.111323196E1
1.417621587E1,4.789815407E0,-2.491637753E1,1.520400031E0,2.541810019E1
1.418613687E1,5.871857573E0,-1.961500414E1,3.224283350E-1,2.047757453E1
1.419605787E1,6.112778646E0,-1.614683576E1,-2.158938199E-1,1.726652768E1
1.420597887E1,5.418561535E0,-1.277327651E1,-3.860372704E-1,1.388043323E1
1.421589987E1,3.413582278E0,-9.297138961E0,-2.113547726E-1,9.906261034E0
1.422581988E1,1.100877803E0,-5.850545057E0,-1.116992144E-1,5.954266211E0
1.423574088E1,-9.062292561E-1,-1.915289986E0,6.481310376E-1,2.215775493E0
1.424566188E1,-2.154872630E0,1.917900183E0,1.785082287E0,3.392393835E0
1.425558287E1,-2.890082815E0,5.721041510E0,3.142658558E0,7.138571107E0
1.426550387E1,-3.061811446E0,9.309675391E0,3.821326752E0,1.051890124E1
1.427542387E1,-3.086694272E0,1.249896842E1,3.187400283E0,1.326316002E1
1.428534487E1,-3.190221272E0,1.498381638E1,1.579862121E0,1.540091652E1
1.429526587E1,-3.050786813E0,1.692964696E1,2.142706146E-1,1.720366700E1
1.430518687E1,-2.801415637E0,1.750570178E1,-8.726694542E-1,1.774990356E1
1.431510787E1,-3.227613046E0,1.776635896E1,-1.597100297E0,1.812765087E1
1.432502788E1,-3.557966405E0,1.796003044E1,-1.983592481E0,1.841620095E1
1.433494888E1,-3.704466639E0,1.830428292E1,-2.104585991E0,1.879359275E1
1.434486987E1,-3.960401022E0,1.852774012E1,-1.843363386E0,1.903575369E1
1.435479087E1,-3.858267707E0,1.574530396E1,-6.826168922E-1,1.622549821E1
1.436471187E1,-3.220274498E0,1.107825640E1,8.762461229E-1,1.157003630E1
1.437463287E1,-2.698384774E0,8.716056118E0,2.107005569E0,9.364314556E0
1.438455287E1,-2.162230182E0,6.822425973E0,2.194504473E0,7.485758840E0
1.439447387E1,-1.700228224E0,5.401736172E0,1.545808522E0,5.870183445E0
1.440439487E1,-1.413109471E0,4.647048912E0,6.967003497E-1,4.906865939E0
1.441431587E1,-1.211576412E0,4.541458722E0,-8.112146330E-1,4.769783424E0
1.442423688E1,-1.191392701E0,4.975466550E0,-2.294685988E0,5.607162183E0
1.443415688E1,-1.560335052E0,5.877542821E0,-3.232175336E0,6.886734531E0
1.444407787E1,-1.522973683E0,6.887354625E0,-3.243652836E0,7.763786853E0
1.445399887E1,-1.312666292E0,8.013780375E0,-3.033484025E0,8.668667373E0
1.446391987E1,-1.259813895E0,8.849688969E0,-3.213342624E0,9.498931346E0
1.447384087E1,-1.599703770E0,9.373618788E0,-3.406146959E0,1.010077316E1
1.448376087E1,-2.130054123E0,9.823574896E0,-3.220437051E0,1.055513946E1
1.449368187E1,-2.697520263E0,1.019595132E1,-2.755834252E0,1.090085599E1
1.450360287E1,-3.253363599E0,1.064533557E1,-2.361858363E0,1.137918798E1
1.451352387E1,-3.944139039E0,1.106684263E1,-2.110087051E0,1.193665388E1
1.452344488E1,-4.787638780E0,1.110325909E1,-1.917768620E0,1.224261753E1
1.453336588E1,-5.661884644E0,1.107852069E1,-1.587522558E0,1.254235968E1
1.454328587E1,-6.493288543E0,1.108151914E1,-1.249276920E0,1.290440062E1
1.455320687E1,-7.209509311E0,1.090754694E1,-1.147584630E0,1.312511162E1
1.456312787E1,-7.615143524E0,1.065889409E1,-1.209770354E0,1.315545432E1
1.457304887E1,-7.960564865E0,1.021441799E1,-1.224364858E0,1.300784368E1
1.458296987E1,-8.092462263E0,9.418545869E0,2.638037123E-1,1.242040837E1
1.459288987E1,-6.373522364E0,7.454072614E0,3.082150986E0,1.028030352E1
1.460281087E1,-2.922472005E0,3.211484379E0,4.259984871E0,6.082922458E0
1.461273187E1,-2.551669362E-1,2.257668436E-1,5.957840295E0,5.967574198E0
1.462265288E1,1.180670369E0,-7.964568454E-1,7.325680622E0,7.462836096E0
1.463257388E1,6.233687371E0,-1.704111945E1,6.042226726E0,1.912503893E1
1.464249488E1,1.924262538E1,-6.416125411E1,9.209313782E0,6.761476629E1
1.465241487E1,2.160091738E1,-6.790407556E1,1.503208515E1,7.282531629E1
1.466233587E1,2.080337120E1,-3.385048100E1,1.657088637E0,3.976658471E1
1.467225687E1,2.603698004E1,-3.758193780E0,-5.937736983E0,2.696859415E1
1.468217787E1,2.283461439E1,-2.012670100E-2,-1.298479486E-1,2.283499245E1
1.469209887E1,2.168909339E1,-1.445585608E1,-5.255471581E-1,2.607038065E1
1.470201887E1,1.580991803E1,-2.597632804E1,-2.004074693E-1,3.040992091E1
1.471193987E1,9.192725816E0,-2.911904975E1,1.920815604E0,3.059599318E1
1.472186088E1,2.724689058E0,-2.527214786E1,4.425898445E0,2.580104581E1
1.473178188E1,-3.292760969E0,-2.007517066E1,4.200198845E0,2.077249195E1
1.474170288E1,-7.659339119E0,-1.630558065E1,4.856849349E0,1.865814626E1
1.475162287E1,-1.053590726E1,-1.274146415E1,5.064227284E0,1.729151955E1
1.476154387E1,-1.019763999E1,-9.651667925E0,1.162071400E0,1.408889510E1
1.477146487E1,-5.122122320E0,-6.890713266E0,-6.443419980E0,1.073479052E1
1.478138587E1,-7.183772206E-2,-2.250183415E0,-8.354181882E0,8.652215957E0
1.479130687E1,1.646196443E0,2.121395566E0,-2.716921032E0,3.819940022E0
1.480122787E1,2.373636410E0,5.770446389E0,2.389428424E0,6.681434690E0
1.481114787E1,3.350230036E0,9.831936414E0,4.878979890E0,1.147586423E1
1.482106888E1,3.570299352E0,1.362651976E1,4.945337602E0,1.492934835E1
1.483098988E1,2.728004722E0,1.709297607E1,3.639183061E0,1.768772156E1
1.484091088E1,1.533532292E0,1.960849619E1,1.923570812E0,1.976221062E1
1.485083187E1,-6.496981645E-1,2.120145666E1,-1.768841207E-1,2.121214652E1
1.486075187E1,-2.703175105E0,2.069344354E1,-2.050331431E0,2.096973105E1
1.487067287E1,-3.278185907E0,2.024444521E1,-2.491371120E0,2.065892046E1
1.488059387E1,-3.163640707E0,2.007728969E1,-2.010674445E0,2.042422570E1
1.489051487E1,-2.994582792E0,1.950563314E1,-1.413965503E0,1.978475546E1
1.490043587E1,-3.412048554E0,1.654839681E1,-8.486718965E-1,1.691779407E1
1.491035587E1,-3.527385467E0,1.278965924E1,-5.589828528E-2,1.326728895E1
1.492027688E1,-3.732185950E0,9.676192902E0,4.373547739E-1,1.038023122E1
1.493019788E1,-3.345373046E0,6.013396445E0,3.920773711E-1,6.892472872E0
1.494011888E1,-2.593436901E0,3.773200074E0,6.075981387E-1,4.618671807E0
1.495003987E1,-1.914385714E0,2.740387663E0,8.450121242E-1,3.447991110E0
1.495995987E1,-1.466084660E0,2.855785972E0,7.883507042E-1,3.305512756E0
1.496988087E1,-1.733270255E0,4.369647646E0,-1.470713608E-1,4.703155995E0
1.497980187E1,-2.157227889E0,5.853145899E0,-8.827037148E-1,6.300167849E0
1.498972287E1,-2.208909966E0,6.731036332E0,-1.610951182E0,7.265073781E0
1.499964387E1,-2.305825519E0,7.401745881E0,-2.502205426E0,8.146392171E0
1.500956487E1,-2.566782953E0,7.950041047E0,-3.287546715E0,8.977721914E0
1.501948488E1,-2.848629857E0,8.704066402E0,-3.540999539E0,9.819070309E0
1.502940588E1,-2.954141109E0,9.348667549E0,-3.313077412E0,1.034896210E1
1.503932688E1,-2.891732900E0,9.723454776E0,-2.744897620E0,1.050914625E1
1.504924787E1,-2.867643833E0,1.008337604E1,-1.936253277E0,1.066053143E1
1.505916887E1,-2.887381109E0,1.038961110E1,-1.397539943E0,1.087355077E1
1.506908887E1,-3.007347848E0,1.076614138E1,-1.141820884E0,1.123644500E1
1.507900987E1,-3.148422158E0,1.121213892E1,-1.168323462E0,1.170425568E1
1.508893075E1,-3.622833369E0,1.175026520E1,-1.214287181E0,1.235589524E1
1.509885175E1,-4.164247532E0,1.189313022E1,-1.337343589E0,1.267185826E1
1.510877275E1,-4.658439581E0,1.118157904E1,-1.689066474E0,1.223036036E1
1.511869275E1,-5.187103012E0,1.006859545E1,-1.556986059E0,1.143270999E1
1.512861375E1,-5.145793603E0,8.996620143E0,6.842992093E-1,1.038684895E1
1.513853475E1,-2.443095923E0,4.792711240E0,2.395749848E0,5.888838260E0
1.514845575E1,7.568600857E-1,-2.698437399E-1,5.115341304E0,5.178066192E0
1.515837675E1,2.188608141E0,-1.627836186E0,9.054049156E0,9.455985531E0
1.516829675E1,7.364287448E0,-1.492941506E1,6.938009639E0,1.803485906E1
1.517821775E1,2.052382751E1,-5.917168466E1,6.317033583E0,6.294776147E1
1.518813875E1,2.142384264E1,-6.967123043E1,1.839416661E0,7.291395502E1
1.519805975E1,1.512850807E1,-4.200614465E1,-3.329274200E0,4.477133024E1
1.520798075E1,1.279381661E1,-1.594559916E1,1.237608655E0,2.048110229E1
1.521790175E1,1.394408087E1,-1.201902662E1,5.060379231E0,1.909193102E1
1.522782175E1,1.569389407E1,-1.693497027E1,4.592171039E0,2.354101875E1
1.523774275E1,1.586341654E1,-2.145615201E1,4.275640790E0,2.702398098E1
1.524766375E1,1.366458630E1,-2.128057650E1,6.877661111E0,2.620851154E1
1.525758475E1,8.618062631E0,-1.898462284E1,7.567351307E0,2.217998453E1
1.526750575E1,3.019537539E0,-1.559504572E1,5.922121993E0,1.695271621E1
1.527742575E1,-1.690995471E0,-1.199365204E1,3.020545891E0,1.248322284E1
1.528734675E1,-3.627167033E0,-8.702513382E0,-2.969347671E-2,9.428200335E0
1.529726775E1,-3.918155766E0,-5.223538182E0,-2.501391494E0,6.992442717E0
1.530718875E1,-2.753910811E0,-1.887090034E0,-3.362403939E0,4.738237415E0
1.531710975E1,-5.315031320E-1,1.361311326E0,-5.783475155E-1,1.571671071E0
1.532702975E1,8.046903098E-1,4.483031005E0,2.329255897E0,5.115713686E0
1.533695075E1,1.245119988E0,8.044626777E0,3.480002555E0,8.853065093E0
1.534687175E1,1.065153654E0,1.191319903E1,2.913681593E0,1.231049974E1
1.535679275E1,3.982985893E-1,1.571519898E1,1.759427190E0,1.581839767E1
1.536671375E1,-8.145630410E-1,1.828783587E1,3.354897722E-1,1.830904168E1
1.537663375E1,-2.142904549E0,1.912869121E1,-1.701455555E0,1.932340080E1
1.538655475E1,-3.445066319E0,1.935459488E1,-3.348122699E0,1.994188433E1
1.539647575E1,-4.136720302E0,1.913274918E1,-3.386458799E0,1.986561475E1
1.540639675E1,-4.187989274E0,1.923659924E1,-2.516694826E0,1.984741185E1
1.541631775E1,-3.846297871E0,1.786513013E1,-2.166684737E0,1.840248365E1
1.542623875E1,-3.495176080E0,1.323921890E1,-2.225563713E0,1.387250182E1
1.543615875E1,-4.052773581E0,1.003287481E1,-2.195467510E0,1.104099761E1
1.544607975E1,-4.243190498E0,7.942049657E0,-1.126941913E0,9.074735061E0
1.545600075E1,-4.205121031E0,6.088797460E0,6.369546696E-1,7.427126540E0
1.546592175E1,-3.713767805E0,4.727498413E0,1.888301138E0,6.301348566E0
1.547584275E1,-2.851813081E0,4.187602188E0,2.178813470E0,5.515077341E0
1.548576275E1,-1.973847365E0,4.547234602E0,1.559086964E0,5.196553483E0
1.549568375E1,-1.215414232E0,5.085767257E0,1.545430060E-1,5.231265993E0
1.550560475E1,-3.902672924E-1,5.641829864E0,-1.480089180E0,5.845786239E0
1.551552575E1,-9.355545044E-6,6.301442567E0,-2.684833267E0,6.849562621E0
1.552544675E1,-1.317794301E-1,6.884440373E0,-3.542895207E0,7.743706575E0
1.553536675E1,-5.874251716E-1,7.438792670E0,-4.158158534E0,8.542305725E0
1.554528775E1,-1.292391365E0,8.339107760E0,-4.341327826E0,9.489895730E0
1.555520875E1,-1.820371111E0,9.440176474E0,-4.032707691E0,1.042561337E1
1.556512975E1,-2.220307651E0,1.029448392E1,-2.659830573E0,1.086189964E1
1.557505075E1,-2.450968614E0,1.088485623E1,-1.137002632E0,1.121517353E1
1.558497075E1,-2.975347791E0,1.183853593E1,1.911945963E-1,1.220820146E1
1.559489175E1,-3.393607605E0,1.272437273E1,1.278237741E0,1.323102890E1
1.560481275E1,-3.793087624E0,1.333125875E1,2.315408521E0,1.405244072E1
1.561473375E1,-4.604570937E0,1.362484745E1,2.874413447E0,1.466631495E1
1.562465475E1,-5.182152175E0,1.345247855E1,2.147957713E0,1.457523937E1
1.563457475E1,-5.177319451E0,1.293440823E1,1.046904932E0,1.397138371E1
1.564449575E1,-4.792957115E0,1.209952407E1,1.121863752E0,1.306252268E1
1.565441675E1,-4.342413947E0,1.098334439E1,1.940966279E0,1.196903350E1
1.566433775E1,-2.860346800E0,8.464807693E0,3.152567250E0,9.474873792E0
1.567425875E1,3.043236011E-1,3.057020237E0,4.169010381E0,5.178670982E0
1.568417875E1,2.235832301E0,-2.207367178E0,4.065965484E0,5.138432763E0
1.569409975E1,3.904009890E0,-8.605987546E0,3.003981314E0,9.916058622E0
1.570402075E1,7.146885046E0,-3.343479308E1,1.528490238E0,3.422425510E1
1.571394175E1,1.274231784E1,-6.802399026E1,5.693842016E0,6.944098035E1
1.572386275E1,1.223618987E1,-5.884463820E1,7.819510143E0,6.060990452E1
1.573378375E1,1.520435816E1,-2.067567970E1,3.861781006E0,2.595321927E1
1.574370375E1,2.028503424E1,-1.105350396E1,3.950183598E0,2.343643562E1
1.575362475E1,2.077495841E1,-2.063431416E1,3.950594072E0,2.954625207E1
1.576354575E1,1.700276639E1,-2.567687576E1,5.249143140E0,3.124019074E1
1.577346675E1,1.057715119E1,-2.724856288E1,5.187338655E0,2.968617168E1
1.578338775E1,5.195904826E0,-2.498722240E1,2.719465740E0,2.566620743E1
1.579330775E1,2.064569401E0,-1.980204020E1,1.441957294E0,1.996152508E1
1.580322875E1,1.029865415E0,-1.494138548E1,4.950569983E-1,1.498501599E1
1.581314975E1,1.325078762E0,-1.195857109E1,-7.563591255E-1,1.205551058E1
1.582307075E1,6.169835776E-2,-8.789581931E0,-4.594416077E-1,8.801797760E0
1.583299175E1,-1.509149111E0,-5.054457756E0,3.505838478E-1,5.286585219E0
1.584291175E1,-2.158774185E0,-5.678295439E-1,8.730566130E-1,2.396865499E0
1.585283275E1,-1.518481852E0,3.836775681E0,2.442217087E0,4.794899275E0
1.586275375E1,-4.370284992E-1,7.595270593E0,3.483344824E0,8.367366398E0
1.587267475E1,3.567245936E-1,1.114386917E1,2.786328651E0,1.149246275E1
1.588259575E1,4.209612277E-1,1.409673179E1,8.081968850E-1,1.412615438E1
1.589251575E1,-7.675090349E-1,1.664871632E1,-1.487487223E0,1.673264604E1
1.590243675E1,-2.420060817E0,1.862966059E1,-3.009111076E0,1.902565893E1
1.591235775E1,-2.996587510E0,1.933482311E1,-3.499215921E0,1.987610207E1
1.592227875E1,-2.792269715E0,2.045011050E1,-2.375131981E0,2.077606896E1
1.593219975E1,-2.579651213E0,2.188712455E1,-2.919795442E-1,2.204055520E1
1.594211975E1,-3.840422004E0,2.024231215E1,1.387091115E0,2.065003787E1
1.595204075E1,-4.751619640E0,1.379733096E1,2.957375497E0,1.488926797E1
1.596196175E1,-4.737625206E0,1.057997071E1,3.496484687E0,1.210810795E1
1.597188275E1,-4.519267954E0,8.523604955E0,3.120264891E0,1.013960933E1
1.598180375E1,-3.935373770E0,6.777988889E0,2.241982695E0,8.151980525E0
1.599172375E1,-3.278356938E0,5.482433596E0,1.549509224E0,6.573102858E0
1.600164475E1,-2.432042200E0,4.643970353E0,7.377174711E-1,5.293913200E0
1.601156575E1,-2.015936354E0,4.309724795E0,-3.766523431E-1,4.772797312E0
1.602148675E1,-1.625996214E0,4.170787935E0,-1.553205249E0,4.738331165E0
1.603140775E1,-1.190911329E0,4.783795406E0,-2.692858570E0,5.617335272E0
1.604132775E1,-9.610349160E-1,5.970657392E0,-3.553329563E0,7.014163441E0
1.605124875E1,-7.113854125E-1,6.855283817E0,-3.843263751E0,7.891239553E0
1.606116975E1,-6.763847105E-1,7.276109682E0,-3.910248284E0,8.287901425E0
1.607109075E1,-8.240089256E-1,7.468685975E0,-3.831427233E0,8.434458817E0
1.608101175E1,-1.309723535E0,7.889594285E0,-3.364918826E0,8.676621026E0
1.609093125E1,-1.831931202E0,8.386926874E0,-2.748645685E0,9.013965133E0
1.610085225E1,-2.529279789E0,8.753988175E0,-2.719172795E0,9.509125402E0
1.611077325E1,-3.223441350E0,9.241578718E0,-2.651610557E0,1.014043342E1
1.612069425E1,-3.913849000E0,1.003118146E1,-2.234119213E0,1.099700432E1
1.613061525E1,-4.488182986E0,1.108248043E1,-1.393176897E0,1.203769499E1
1.614053525E1,-4.664537934E0,1.243449585E1,-3.865879320E-1,1.328623541E1
1.615045625E1,-4.453320717E0,1.377341234E1,4.034894550E-1,1.448108271E1
1.616037725E1,-3.835350714E0,1.459589923E1,8.768315023E-1,1.511684567E1
1.617029825E1,-3.354761628E0,1.482621170E1,4.007593169E-1,1.520630090E1
1.618021925E1,-2.990202350E0,1.457948493E1,-1.006886296E0,1.491698733E1
1.619013925E1,-2.467646920E0,1.382591800E1,-1.613059541E0,1.413673409E1
1.620006025E1,-2.429810464E0,1.212860578E1,1.630601335E-1,1.237067685E1
1.620998125E1,-9.933375666E-1,7.335331451E0,4.110606637E0,8.467047534E0
1.621990225E1,2.205706861E0,-4.775590593E-1,6.251457644E0,6.646346973E0
1.622982325E1,4.153497426E0,-4.744722556E0,5.763919727E0,8.543225598E0
1.623974425E1,8.714443456E0,-1.965177377E1,3.173672774E0,2.173029995E1
1.624966425E1,1.642587659E1,-6.085410168E1,4.441126934E0,6.318824829E1
1.625958525E1,1.431830618E1,-6.790722370E1,5.489177774E0,6.961706684E1
1.626950625E1,9.825546577E0,-2.879466961E1,-2.201678422E0,3.050445462E1
1.627942725E1,1.126794007E1,-7.453264529E-1,-7.169557625E-1,1.131529984E1
1.628934825E1,1.087778110E1,-1.150104283E1,5.947735721E0,1.691081512E1
1.629926825E1,1.127230443E1,-2.573702489E1,1.674290677E1,3.270755608E1
1.630918925E1,7.999745303E0,-3.066984828E1,1.823208033E1,3.656561598E1
1.631911025E1,4.868906015E0,-3.070485440E1,1.117223285E1,3.303502862E1
1.632903125E1,5.221393424E0,-2.789712435E1,3.462089610E0,2.859193174E1
1.633895225E1,6.148285278E0,-2.383572788E1,-2.096082970E0,2.470499745E1
1.634887225E1,7.018898267E0,-2.075823771E1,-3.769340912E0,2.223459684E1
1.635879325E1,7.200118682E0,-1.696852861E1,-3.597670169E0,1.878073222E1
1.636871425E1,5.195068674E0,-1.072647504E1,-1.681772658E0,1.203637672E1
1.637863525E1,2.359008138E0,-4.438148362E0,1.240883827E0,5.177052535E0
1.638855625E1,1.362149086E0,-3.805514127E-1,2.604829908E0,2.964018954E0
1.639847625E1,4.609937511E-1,4.563675803E0,4.761960148E0,6.611801307E0
1.640839725E1,-7.908074118E-1,8.994718044E0,6.247271622E0,1.097992403E1
1.641831825E1,-9.965602595E-1,1.275935896E1,6.550662593E0,1.437725822E1
1.642823925E1,-1.513904943E0,1.586370890E1,4.523139396E0,1.656526361E1
1.643816025E1,-2.800954877E0,1.789368208E1,-1.911267686E-1,1.811258502E1
1.644808025E1,-2.746131090E0,1.862871802E1,-4.066912733E0,1.926421943E1
1.645800125E1,-2.424735666E0,1.916932235E1,-4.400674142E0,1.981686643E1
1.646792225E1,-2.125822932E0,1.996775029E1,-2.767604113E0,2.027041705E1
1.647784325E1,-1.892977303E0,2.132682096E1,-1.435011386E0,2.145870250E1
1.648776425E1,-2.639454780E0,2.214642986E1,-6.215964460E-1,2.231182330E1
1.649768425E1,-5.128364223E0,1.835133664E1,7.359983166E-1,1.906864886E1
