"Time (s)","Linear Acceleration x (m/s^2)","Linear Acceleration y (m/s^2)","Linear Acceleration z (m/s^2)","Absolute acceleration (m/s^2)"
1.096279174E-2,-8.736987104E-1,5.159493922E-1,-1.398347005E0,1.727694290E0
2.088479174E-2,-7.919357783E-1,6.157351971E-1,-1.330398851E0,1.666209234E0
3.080679174E-2,-6.921403255E-1,6.716582599E-1,-9.577879572E-1,1.359242737E0
4.072779173E-2,-2.641208506E-1,3.152893963E-1,-2.550298190E-1,4.839498277E-1
5.064979172E-2,8.481673183E-2,-3.457664730E-1,2.712535036E-1,4.475788143E-1
6.057179172E-2,-4.443515887E-1,-5.039407461E-1,1.627847296E-1,6.913056329E-1
7.049379172E-2,-8.557519975E-1,-2.054091045E-1,6.221735662E-1,1.077777495E0
8.041479171E-2,-1.292573944E0,-7.474057227E-2,5.869329822E-1,1.421556850E0
9.033679171E-2,-1.348973993E0,-9.537378833E-2,1.921903771E-1,1.365929770E0
1.002587917E-1,-9.127108216E-1,-6.933754036E-1,-2.281028062E-1,1.168692168E0
1.101807917E-1,-4.249887168E-1,-1.239317065E0,-4.724023998E-1,1.392726184E0
1.201017917E-1,-9.253126676E-1,-1.096840666E0,-3.218880522E-1,1.470671580E0
1.300237917E-1,-1.375334703E0,-2.851464880E-1,3.149503309E-1,1.439460933E0
1.399457917E-1,-1.594958608E0,1.003220677E-1,1.223318791E0,2.012577040E0
1.498677917E-1,-1.725223463E0,-2.570046796E-1,2.070886148E0,2.707585057E0
1.597887917E-1,-1.800109193E0,4.943113321E-1,2.677244750E0,3.263797826E0
1.697107917E-1,-1.962319141E0,1.234281151E0,1.560820663E0,2.794692740E0
1.796327917E-1,-1.400758105E0,-6.571102412E-1,1.574366907E0,2.207384945E0
1.895547917E-1,-1.024277231E-1,-1.909254490E0,8.886978418E-1,2.108442078E0
1.994757917E-1,1.176751858E0,-2.271405007E0,-7.416719431E-1,2.663475720E0
2.093977918E-1,1.273563623E0,-2.571601936E0,-2.320958698E0,3.690792610E0
2.193197918E-1,-5.492234114E-1,-2.164472004E0,-1.649203666E0,2.776050818E0
2.292417918E-1,-2.724525044E0,5.924354314E-1,1.792940506E0,3.314913591E0
2.391627918E-1,-2.261134080E0,1.251636271E0,2.087182338E0,3.321995003E0
2.490847918E-1,-2.039449178E0,-1.193558363E0,3.413277054E-1,2.387559239E0
2.590067917E-1,-3.916201919E0,-3.311218290E0,-6.796540350E-1,5.173271078E0
2.689287917E-1,-3.730298468E0,-1.643693835E0,-6.108223665E-1,4.121887923E0
2.788497917E-1,-2.427379777E0,-6.233832090E-1,-1.281697977E-1,2.509423580E0
2.887717917E-1,-2.028466938E0,2.701702338E-1,-8.238797021E-1,2.206002683E0
2.986937917E-1,-2.533205609E0,2.220400037E0,-1.229042045E0,3.585784619E0
3.086147917E-1,-2.634633751E0,2.714357613E0,-1.168741465E0,3.959165172E0
3.185367917E-1,-2.678795432E0,1.277997128E0,-1.617245709E0,3.380045164E0
3.284587917E-1,-1.855336729E0,-7.760041621E-1,-1.333345263E0,2.412937303E0
3.383807917E-1,-9.248061526E-1,-7.540072292E-1,-9.871210992E-2,1.197304223E0
3.483017917E-1,-1.269463263E0,2.635867806E-1,7.038907439E-1,1.475288834E0
3.582237917E-1,-1.827691678E0,-6.343794827E-1,1.174497171E0,2.263258228E0
3.681457917E-1,-1.176884882E0,-1.563542542E0,1.902832493E0,2.729559452E0
3.780677917E-1,-4.959731108E-1,-3.820952238E-1,2.774796188E0,2.844552684E0
3.879887917E-1,-3.467515826E-2,2.069535441E0,2.285755682E0,3.083643680E0
3.979107917E-1,1.208142343E0,3.614389113E0,1.631391878E0,4.145462102E0
4.078327917E-1,3.188579081E0,3.305618996E0,1.894416010E0,4.968195399E0
4.177547917E-1,4.483764246E0,2.505186337E0,2.839142457E0,5.868631040E0
4.276757917E-1,4.568951746E0,2.031705126E0,3.818251702E0,6.291437978E0
4.375977917E-1,4.053027350E0,1.841339372E0,4.149652004E0,6.085817377E0
4.475197917E-1,3.169287947E0,8.888960624E-1,2.737128425E0,4.280933814E0
4.574407918E-1,1.766434493E0,-1.154620439E0,4.524844444E-1,2.158282036E0
4.673627918E-1,-1.133541226E-2,-1.810097114E0,-2.272046593E0,2.904957104E0
4.772847918E-1,-2.822024733E0,-4.454926363E-1,-4.693840671E0,5.494945634E0
4.872067918E-1,-5.683661429E0,8.369844818E-1,-6.319792299E0,8.540744989E0
4.971277918E-1,-6.873259327E0,5.272527909E-1,-7.559837050E0,1.023087609E1
5.070497917E-1,-6.555579516E0,6.364738092E-1,-6.582452735E0,9.311788534E0
5.169717917E-1,-5.510295578E0,8.787952897E-1,-3.798568804E0,6.750167663E0
5.268937917E-1,-3.291062645E0,-1.588784972E-1,-2.239464591E0,3.983909809E0
5.368147917E-1,-1.516844339E0,-1.209216768E0,-2.212772198E0,2.942682916E0
5.467367917E-1,7.654590011E-1,-1.946467339E0,-1.734172188E0,2.716986523E0
5.566587917E-1,2.979020720E0,-2.310716130E0,4.940827060E-1,3.802379676E0
5.665807917E-1,3.888172706E0,-2.441051152E0,3.108244185E0,5.544168074E0
5.765017917E-1,4.178629051E0,-2.576188492E0,4.925261772E0,6.953840048E0
5.864237917E-1,3.753220723E0,-2.811514948E0,5.517369540E0,7.241039203E0
5.963457917E-1,2.385698485E0,-3.143336250E0,3.248758332E0,5.111413772E0
6.062667917E-1,-2.482295072E-1,8.267085850E-2,1.985733147E0,2.002895027E0
6.161887917E-1,-2.686103867E0,4.173885205E0,1.217679151E0,5.110696058E0
6.261107917E-1,-3.056194611E0,4.599784698E0,7.703311935E-1,5.575998110E0
6.360327917E-1,-3.973908675E0,4.679282273E0,2.081418445E0,6.482278573E0
6.459537917E-1,-4.132638946E0,4.146082279E0,2.232714566E0,6.265278705E0
6.558757917E-1,-2.869336894E0,3.167284107E0,1.932459165E0,4.690328480E0
6.657977917E-1,-2.071424092E0,2.678138790E0,2.359165574E0,4.126607245E0
6.757197917E-1,-1.268050575E0,2.256320068E0,2.830483023E0,3.835435654E0
6.856407917E-1,-7.373909041E-1,2.595460330E0,2.718679290E0,3.830323322E0
6.955627917E-1,-1.793127617E-1,2.083804986E0,-3.096351241E0,3.736547510E0
7.054847917E-1,2.291627310E0,1.127050232E0,-9.988991457E0,1.031027392E1
7.154067917E-1,1.290118552E0,1.596561769E0,-6.229277401E0,6.558758442E0
7.253277918E-1,-2.829979286E-1,3.469286948E0,-1.551935526E0,3.811107927E0
7.352497918E-1,-9.172892645E-1,4.271745960E0,6.149727201E-1,4.412190452E0
7.451717918E-1,-1.188870504E0,5.343639407E0,3.214930143E0,6.348517230E0
7.550927917E-1,-6.019939479E-1,5.973931248E0,4.742697958E0,7.651368190E0
7.650147917E-1,-5.183932360E-1,6.484669163E0,3.660995807E0,7.464754249E0
7.749367917E-1,-1.056481064E0,6.811861809E0,1.177267874E0,6.993108979E0
7.848587917E-1,-1.528113093E0,6.579766524E0,-3.054351568E-1,6.761785842E0
7.947797917E-1,-1.464624025E0,5.984574934E0,-1.835410588E0,6.428762922E0
8.047017917E-1,-1.224922609E0,5.370438366E0,-3.090763350E0,6.316237941E0
8.146237917E-1,-6.373216555E-1,6.243355742E0,-1.041772100E0,6.361678939E0
8.245457917E-1,5.023547620E-2,6.985272684E0,6.200779241E-1,7.012920554E0
8.344660418E-1,6.415418833E-1,7.151587962E0,1.487951492E0,7.332856606E0
8.443880418E-1,7.156443782E-1,6.299627007E0,1.845321034E0,6.603230801E0
8.543100418E-1,8.139689639E-1,3.293561161E0,2.428980160E0,4.172533428E0
8.642310417E-1,-1.062418619E-1,-1.903899025E0,2.928407221E0,3.494522525E0
8.741530417E-1,-1.504023149E0,-9.907399410E0,4.593917018E0,1.102373450E1
8.840750417E-1,-3.591030656E0,-2.041504591E1,7.094113925E0,2.190881223E1
8.939970417E-1,-6.192716516E0,-2.962995139E1,9.395235944E0,3.169470327E1
9.039180417E-1,-7.703189144E0,-3.191533796E1,9.333461280E0,3.413270308E1
9.138400417E-1,-7.878298050E0,-2.519920501E1,7.755290174E0,2.751748606E1
9.237620417E-1,-6.201369810E0,-1.516166296E1,5.126936333E0,1.716445418E1
9.336840417E-1,-3.371004608E0,-7.494155862E0,2.239561363E0,8.517140321E0
9.436050417E-1,-1.804617688E0,-8.643669927E-1,2.093020198E0,2.895601639E0
9.535270417E-1,-1.390157395E0,3.060115753E0,-2.112103464E-1,3.367707799E0
9.634490417E-1,-1.906706858E0,4.117816254E0,-4.133632972E0,6.138311111E0
9.733700417E-1,-3.058760369E0,5.440044791E0,-9.050463059E0,1.099367927E1
9.832920417E-1,-4.609088496E0,6.441883916E0,-1.386303261E1,1.596637837E1
9.932140417E-1,-5.183467214E0,5.553027030E0,-1.151890023E1,1.379817032E1
1.003136042E0,-4.858622809E0,3.209051937E0,-5.872010770E0,8.269506662E0
1.013057042E0,-3.835615301E0,2.054974120E0,-1.845237418E0,4.726496007E0
1.022979042E0,-3.042916461E0,1.442508101E0,-2.166003098E-1,3.374475649E0
1.032901042E0,-2.345632194E0,5.813985926E-1,3.743416697E-1,2.445433785E0
1.042822042E0,-1.200315260E0,-5.084095538E-2,8.260243877E-1,1.457963585E0
1.052744042E0,-3.739811888E-1,-5.167815971E-1,1.304987144E0,1.452555195E0
1.062666042E0,4.358806908E-2,-8.561510700E-1,1.552980862E0,1.773878275E0
1.072588042E0,3.553858736E-1,-8.913670957E-1,1.644588459E0,1.904076054E0
1.082509042E0,5.056224784E-1,-1.033055071E0,1.659422845E0,2.019044588E0
1.092431042E0,6.312218401E-1,-1.267395687E0,1.691511780E0,2.205888696E0
1.102353042E0,1.033669614E0,-1.183974631E0,1.687846161E0,2.306315993E0
1.112275042E0,1.563907116E0,-8.686968559E-1,1.578530710E0,2.385832956E0
1.122196042E0,1.938569213E0,-5.498832697E-1,1.519175039E0,2.523552061E0
1.132118042E0,2.113046035E0,-3.290163928E-1,1.413758512E0,2.563577278E0
1.142040042E0,2.108022692E0,-1.954314888E-1,1.203977371E0,2.435470108E0
1.151961042E0,1.928162631E0,-1.823384035E-1,1.064951560E0,2.210244387E0
1.161883042E0,1.677814970E0,-2.045028591E-1,9.197939924E-1,1.924293502E0
1.171805042E0,1.353771049E0,-1.074098432E-1,7.997839842E-1,1.576035326E0
1.181727042E0,1.042334310E0,9.478921294E-2,7.104139707E-1,1.264963959E0
1.191648042E0,7.602380222E-1,2.775141174E-1,6.339667424E-1,1.028051441E0
1.201570042E0,3.295672005E-1,3.274475849E-1,6.085928231E-1,7.656511509E-1
1.211492042E0,-1.333723578E-1,4.040969807E-1,6.388824966E-1,7.676284258E-1
1.221414042E0,-5.285415173E-1,3.044078010E-1,6.756690113E-1,9.102465917E-1
1.231335042E0,-8.997753918E-1,-7.733176589E-2,7.921532947E-1,1.201283813E0
1.241257042E0,-1.269633709E0,-5.436711878E-1,9.012266707E-1,1.649168769E0
1.251179042E0,-1.564820743E0,-8.546951133E-1,6.837225276E-1,1.909618860E0
1.261100042E0,-1.615799401E0,-8.775863779E-1,1.880153190E-1,1.848327707E0
1.271022042E0,-1.409605234E0,-8.277686852E-1,-4.331132036E-1,1.691086917E0
1.280944042E0,-9.823930407E-1,-6.981575489E-1,-1.188417930E0,1.692588912E0
1.290866042E0,-5.016378933E-1,-5.473508406E-1,-2.123019923E0,2.249099178E0
1.300787042E0,-1.677905309E-1,-4.352977234E-1,-3.191544789E0,3.225460573E0
1.310709042E0,4.060569674E-2,-4.111241645E-1,-3.982265516E0,4.003637164E0
1.320631042E0,1.434061798E-1,-3.410593182E-1,-4.013975551E0,4.030990761E0
1.330552042E0,8.442268431E-2,-2.138642514E-1,-3.231947880E0,3.240116079E0
1.340474042E0,-2.839904934E-2,-1.117636800E-1,-1.996708809E0,2.000035923E0
1.350396042E0,-1.731193909E-1,1.634062886E-2,-8.632092440E-1,8.805495662E-1
1.360318042E0,-3.052345973E-1,1.630624723E-1,-9.940792859E-2,3.600548091E-1
1.370239042E0,-3.967093161E-1,2.601443785E-1,4.224981683E-1,6.352622147E-1
1.380161042E0,-4.982269201E-1,3.312921292E-1,7.785936016E-1,9.819330604E-1
1.390083042E0,-5.592671737E-1,4.190436333E-1,9.426243728E-1,1.173421513E0
1.400004042E0,-5.464793131E-1,4.738788217E-1,8.739119875E-1,1.134426260E0
1.409926042E0,-4.116664937E-1,5.367597789E-1,4.620042231E-1,8.191631488E-1
1.419848042E0,-1.290606210E-1,5.423795378E-1,-7.125580716E-1,9.047492539E-1
1.429770042E0,4.219947231E-1,3.984333676E-1,-3.204629104E0,3.256758570E0
1.439691042E0,9.182669190E-1,2.756377459E-3,-6.450931313E0,6.515960139E0
1.449613042E0,7.849694055E-1,-3.672396415E-1,-7.788106502E0,7.836175394E0
1.459535042E0,2.571386173E-1,-7.624535322E-1,-6.870948508E0,6.917903516E0
1.469456042E0,-9.715762764E-2,-9.138595802E-1,-4.599548471E0,4.690461073E0
1.479378042E0,-8.355700403E-2,-6.126244783E-1,-9.091072556E-1,1.099439187E0
1.489300042E0,3.772418886E-2,-6.975728273E-3,3.249457075E0,3.249683532E0
1.499222042E0,1.856137213E-1,6.760264224E-1,7.834244542E0,7.865548406E0
1.509143042E0,2.501985571E-1,1.644455143E0,1.147115304E1,1.159112523E1
1.519065042E0,-1.243506888E-1,2.626600846E0,1.145085384E1,1.174889564E1
1.528987042E0,-2.086526281E-1,4.419362428E0,8.320669150E0,9.423790919E0
1.538908042E0,-6.808059365E-2,6.129137986E0,5.442421099E0,8.197006456E0
1.548830042E0,1.129194991E0,6.992742501E0,4.045606941E0,8.157233878E0
1.558752042E0,2.153193895E0,7.399558437E0,1.886618456E0,7.934042993E0
1.568674042E0,1.775128426E0,6.751829031E0,2.718927504E0,7.492051986E0
1.578595042E0,1.954742027E0,5.009896125E0,6.403515072E0,8.362121791E0
1.588517042E0,2.464036849E0,4.225810819E0,7.289170607E0,8.778437379E0
1.598439042E0,-1.264143466E0,3.850841158E0,6.593125073E0,7.739272224E0
1.608360042E0,-8.322610425E0,1.325781305E0,-1.492521968E0,8.558689280E0
1.618282042E0,-1.676059226E1,-6.064660154E0,-3.294570858E1,3.745820697E1
1.628204042E0,-1.790063442E1,-1.472653188E1,-1.289832857E1,2.652678521E1
1.638126042E0,-1.383814219E1,-1.690108799E1,1.204468420E1,2.494424527E1
1.648047042E0,-1.172694299E1,-1.775891546E1,8.972316191E0,2.309551316E1
1.657969042E0,-8.736401505E0,-1.827087778E1,6.235446213E0,2.119033920E1
1.667891042E0,-4.699981416E0,-1.827235713E1,3.645418824E0,1.921608541E1
1.677812042E0,-1.602416001E0,-1.778103197E1,2.536995482E0,1.803244800E1
1.687734042E0,-8.796083450E-2,-1.711222042E1,2.270784764E0,1.726245314E1
1.697656042E0,3.645715570E-1,-1.650438715E1,1.866363262E0,1.661357937E1
1.707578042E0,1.327224398E-1,-1.580526715E1,1.050127260E0,1.584067083E1
1.717499042E0,-1.564510256E-2,-1.462550018E1,-6.528158998E-1,1.464007066E1
1.727421042E0,3.846017790E-1,-1.171456678E1,-4.053809123E0,1.240211118E1
1.737343042E0,1.203762193E0,-8.506514713E0,-8.031290447E0,1.176058937E1
1.747264042E0,1.558742563E0,-5.193310416E0,-9.363411888E0,1.082005701E1
1.757186042E0,1.789725122E0,-2.222388090E0,-8.136447358E0,8.622290905E0
1.767108042E0,1.797239672E0,5.744304657E-3,-5.867349955E0,6.136440249E0
1.777030042E0,1.299301604E0,2.129452445E0,-4.217004912E0,4.899579860E0
1.786951042E0,9.144305608E-1,4.262112672E0,-3.341568555E0,5.492528388E0
1.796873042E0,8.330028203E-1,6.296381217E0,-2.962994671E0,7.008398358E0
1.806795042E0,9.833084223E-1,8.051441122E0,-2.992140702E0,8.645548309E0
1.816716042E0,1.295318188E0,9.263767732E0,-2.970826432E0,9.814328886E0
1.826638042E0,1.487402439E0,1.011330560E1,-2.999895864E0,1.065320099E1
1.836560125E0,1.548442400E0,1.082721672E1,-3.190966499E0,1.139335609E1
1.846482125E0,1.561016252E0,1.121618754E1,-3.403847834E0,1.182479660E1
1.856403125E0,1.426815052E0,1.128665116E1,-2.969620151E0,1.175767577E1
1.866325125E0,1.031731554E0,1.105952192E1,-2.038874397E0,1.129311754E1
1.876247125E0,5.896633396E-1,1.072333859E1,-1.185572675E0,1.080478024E1
1.886168125E0,3.205388072E-1,1.027796202E1,-4.855785155E-1,1.029441766E1
1.896090125E0,1.438795120E-1,1.005563217E1,-2.961416288E-1,1.006102080E1
1.906012125E0,7.147025380E-1,1.010237599E1,-5.524332404E-1,1.014268124E1
1.915934125E0,2.452249447E0,1.040702878E1,-9.378792842E-1,1.073309802E1
1.925855125E0,3.497560282E0,1.058050047E1,-9.280676564E-1,1.118218349E1
1.935777125E0,3.646005008E0,1.041200593E1,-1.917255235E-1,1.103358413E1
1.945699125E0,3.664933029E0,1.001916192E1,9.919719493E-1,1.071444576E1
1.955620125E0,3.554627645E0,9.679478452E0,2.049039635E0,1.051314626E1
1.965542125E0,3.512425074E0,9.598069423E0,2.490867090E0,1.051971888E1
1.975464125E0,3.750806408E0,9.446321898E0,2.810498117E0,1.054516220E1
1.985385125E0,3.913858648E0,9.254681743E0,3.075628417E0,1.050842109E1
1.995307125E0,3.930033800E0,9.119949616E0,3.259501422E0,1.045193744E1
2.005229125E0,4.082663378E0,9.002321763E0,3.571320861E0,1.051019838E1
2.015151125E0,4.260902883E0,8.869473023E0,4.015639669E0,1.062770940E1
2.025072125E0,4.425839973E0,8.726893932E0,4.532880857E0,1.078395781E1
2.034994125E0,4.395018130E0,8.508169475E0,4.967590935E0,1.078805320E1
2.044916125E0,4.205534429E0,8.214256842E0,5.477403821E0,1.073137866E1
2.054837125E0,3.876465996E0,8.107333487E0,5.720041051E0,1.065245110E1
2.064759125E0,3.320601025E0,8.065662720E0,6.174617629E0,1.068677730E1
2.074681125E0,2.628131939E0,7.907468054E0,5.732839437E0,1.011437475E1
2.084603125E0,1.822751658E0,7.369991407E0,4.692814777E0,8.925340748E0
2.094524125E0,9.410581961E-1,6.593655415E0,4.437071013E0,8.003091992E0
2.104446125E0,2.990690008E-1,6.001573375E0,4.607365321E0,7.572063156E0
2.114368125E0,-1.980370080E-1,4.912631201E0,4.012629522E0,6.346208290E0
2.124289125E0,-2.413285356E0,-1.150907457E-2,4.668206477E0,5.255114688E0
2.134211125E0,-1.495462825E1,-2.545475874E1,-5.497713540E0,3.003015989E1
2.144133125E0,-2.579741026E1,-6.791765981E1,-6.969259850E1,1.006745905E2
2.154055125E0,-3.407920770E1,-6.401456852E1,1.003546630E1,7.321180208E1
2.163976125E0,-2.874883212E1,-5.528880135E1,3.206545236E1,7.008238108E1
2.173898125E0,-1.334605338E1,-3.389201962E1,1.446395564E1,3.919173571E1
2.183820125E0,-4.748134114E0,-1.583545516E1,9.603648251E0,1.911900827E1
2.193741125E0,-1.400247643E0,-6.667482945E0,6.653478863E0,9.522856886E0
2.203663125E0,-6.190201628E-1,-3.232216852E0,4.762318583E0,5.788790031E0
2.213585125E0,-1.203572159E0,-2.726469535E0,3.548192199E0,4.633777072E0
2.223507125E0,-2.355117255E0,-4.248858789E0,2.465688980E0,5.447843650E0
2.233428125E0,-3.338337969E0,-6.182734149E0,7.369585025E-1,7.064970615E0
2.243350125E0,-2.697507691E0,-7.764612390E0,-4.708892573E0,9.473089389E0
2.253272125E0,2.348142403E-1,-9.135168748E0,-1.392698478E1,1.665735126E1
2.263193125E0,2.105263391E0,-7.121146188E0,-1.317324126E1,1.512207467E1
2.273115125E0,1.841521221E0,-4.061978268E0,-7.232108214E0,8.496720372E0
2.283037125E0,1.165726640E0,-1.801533574E0,-4.377037357E0,4.874720284E0
2.292958125E0,8.932759193E-1,5.457060188E-1,-3.396648157E0,3.554286937E0
2.302880125E0,8.398563418E-1,2.782388797E0,-3.021682005E0,4.192565829E0
2.312802125E0,9.901502493E-1,5.069812544E0,-2.801967614E0,5.876599294E0
2.322724125E0,1.436348644E0,7.391053662E0,-2.533985628E0,7.944297000E0
2.332645125E0,1.947565446E0,9.162301583E0,-2.203317981E0,9.622649926E0
2.342567125E0,2.156014299E0,1.003142002E1,-1.686030015E0,1.039809995E1
2.352489125E0,2.330139703E0,1.051548060E1,-1.019070286E0,1.081865923E1
2.362410125E0,2.546045218E0,1.089590045E1,-6.058861470E-1,1.120580613E1
2.372332125E0,2.571311621E0,1.117709071E1,-4.665563901E-1,1.147853105E1
2.382254125E0,2.274303179E0,1.159462635E1,-7.033171320E-1,1.183648893E1
2.392175125E0,1.732359259E0,1.198758731E1,-1.404404136E0,1.219326327E1
2.402097125E0,1.137394249E0,1.215286938E1,-1.680669873E0,1.232114245E1
2.412019125E0,9.355363780E-1,1.187078333E1,-9.032837943E-1,1.194180249E1
2.421941125E0,1.343746875E0,1.138314659E1,1.094889669E-1,1.146270779E1
2.431862125E0,2.161320355E0,1.085111546E1,7.570963132E-1,1.109014009E1
2.441784125E0,3.178250560E0,1.034317836E1,1.498364360E0,1.092372239E1
2.451706125E0,4.311866046E0,1.018820609E1,2.139334678E0,1.126802933E1
2.461627125E0,5.105103414E0,1.022219713E1,2.423115402E0,1.168019192E1
2.471549125E0,5.854387847E0,1.024107779E1,2.641039083E0,1.208836708E1
2.481471125E0,6.466464441E0,1.006037076E1,2.648569420E0,1.224912822E1
2.491392125E0,6.861086594E0,9.595558044E0,2.527669466E0,1.206392790E1
2.501314125E0,7.045873811E0,8.877656202E0,2.594675049E0,1.162710007E1
2.511236125E0,7.011803840E0,8.020956078E0,2.872183903E0,1.103406407E1
2.521158125E0,6.720302013E0,7.396620796E0,2.684200598E0,1.034782060E1
2.531079125E0,6.464136080E0,7.080764147E0,2.222247319E0,9.841781308E0
2.541001125E0,6.240596441E0,7.049178073E0,1.643737543E0,9.557082638E0
2.550923125E0,6.109428191E0,7.176711693E0,9.396206582E-1,9.471704732E0
2.560844125E0,5.941026042E0,7.271419630E0,5.576665715E-1,9.406398135E0
2.570766125E0,5.769600881E0,7.331989183E0,7.239999032E-1,9.357912992E0
2.580688125E0,5.397976413E0,7.278787122E0,-1.463360442E0,9.179341757E0
2.590609125E0,3.571742153E0,6.449747252E0,-1.243324688E1,1.445483344E1
2.600531125E0,2.857092825E0,6.004424477E0,-6.816853577E0,9.522897952E0
2.610453125E0,5.093755138E-1,4.162121192E0,-2.608786719E0,4.938469841E0
2.620375125E0,-2.741530209E0,2.508435634E0,-8.422411287E-1,3.810197808E0
2.630296125E0,-3.177758516E0,7.986191458E-1,-2.990238018E0,4.435928892E0
2.640218125E0,-7.381823248E0,-9.374858982E0,-2.958198785E1,3.189785730E1
2.650140125E0,-1.058862459E1,-2.330909957E1,-2.523024437E1,3.594437821E1
2.660061125E0,-1.884938726E1,-3.764302717E1,8.288369130E0,4.290680549E1
2.669983125E0,-3.007462980E1,-5.288096940E1,1.145775823E1,6.190444657E1
2.679905125E0,-3.067490262E1,-5.123302288E1,1.094137191E1,6.070820293E1
2.689827125E0,-1.578825059E1,-3.373339869E1,1.064718796E1,3.873723861E1
2.699748125E0,-6.745705826E0,-1.951671010E1,8.934586447E0,2.249963012E1
2.709670125E0,-3.650250963E0,-1.235214366E1,6.768114696E0,1.455016020E1
2.719592125E0,-2.148673705E0,-9.632410120E0,5.175206852E0,1.114373768E1
2.729513125E0,-1.976889233E0,-9.231740777E0,3.575298722E0,1.009534000E1
2.739435125E0,-1.794224555E0,-9.040309954E0,2.488772618E0,9.546749968E0
2.749357125E0,-1.418055923E0,-7.880239325E0,1.846914400E0,8.217064392E0
2.759278125E0,-1.117719830E0,-6.402146823E0,9.678089154E-1,6.570649562E0
2.769200125E0,-8.405439743E-1,-5.817322347E0,-6.213474277E-1,5.910484421E0
2.779122125E0,-6.903456688E-1,-5.577412258E0,-3.811125115E0,6.790344563E0
2.789044125E0,-2.155206214E0,-3.007218332E0,-1.637405506E1,1.678683874E1
2.798965125E0,-3.543451569E0,8.663375044E-1,-2.083519642E1,2.115211573E1
2.808887125E0,-2.158573041E0,2.258805719E0,-1.116882977E1,1.159760317E1
2.818809125E0,-1.560426853E0,2.935605728E0,-6.637532337E0,7.423580570E0
2.828730125E0,-1.019107415E0,4.567684654E0,-5.143620193E0,6.954074468E0
2.838653125E0,-2.209165782E-1,6.519669426E0,-4.204001874E0,7.760703919E0
2.848575125E0,5.793848115E-1,8.323741862E0,-3.726090812E0,9.138058770E0
2.858496125E0,1.210772128E0,9.638059700E0,-3.515740737E0,1.033046934E1
2.868418125E0,1.691918454E0,1.039656578E1,-2.746651785E0,1.088555300E1
2.878340125E0,2.190057373E0,1.066768947E1,-1.920739006E0,1.105826335E1
2.888262125E0,2.443751104E0,1.107293777E1,-1.161596752E0,1.139873578E1
2.898183125E0,2.391034946E0,1.144150414E1,-3.862249660E-1,1.169505173E1
2.908105125E0,1.970516353E0,1.158878381E1,3.605533504E-1,1.176064810E1
2.918027125E0,1.631824572E0,1.121139984E1,9.681118011E-1,1.137082135E1
2.927948125E0,1.631678684E0,1.060200653E1,1.692197074E0,1.085948658E1
2.937870125E0,2.209164320E0,1.007874037E1,2.311144731E0,1.057368452E1
2.947792125E0,3.323802083E0,9.954030955E0,2.677261122E0,1.083042565E1
2.957713125E0,4.019658752E0,9.912214007E0,2.901667027E0,1.108283874E1
2.967635125E0,4.217590803E0,9.764688172E0,3.157812494E0,1.109544893E1
2.977557125E0,4.362814005E0,9.611843124E0,3.618358787E0,1.115859286E1
2.987478125E0,4.631598814E0,9.503923988E0,4.258914245E0,1.139800988E1
2.997400125E0,4.919033318E0,9.379398760E0,4.651472038E0,1.156746308E1
3.007322125E0,5.216407503E0,8.950440588E0,4.994633138E0,1.150076755E1
3.017244125E0,5.334741114E0,8.520970784E0,5.212624354E0,1.132421558E1
3.027165125E0,5.372974888E0,8.215171931E0,5.787109199E0,1.139511044E1
3.037087125E0,5.411911497E0,7.968479072E0,5.781241518E0,1.123424222E1
3.047009125E0,5.257252058E0,7.899593609E0,5.222538893E0,1.083130606E1
3.056930125E0,5.073446589E0,7.789208118E0,5.127073742E0,1.061595538E1
3.066852125E0,4.769194616E0,7.730792094E0,4.698162348E0,1.022658756E1
3.076774125E0,4.268988998E0,7.896788700E0,3.761315901E0,9.732987010E0
3.086695125E0,4.260836518E0,7.874428947E0,3.367993877E0,9.565811091E0
3.096617125E0,4.291539955E0,7.945936886E0,2.943251547E0,9.498313421E0
3.106539125E0,4.336192802E0,8.012026210E0,2.769313838E0,9.521776680E0
3.116460125E0,4.179101214E0,7.846585091E0,2.693109416E0,9.289059310E0
3.126382125E0,2.564145274E0,6.986024051E0,1.232082890E0,7.543036608E0
3.136304125E0,-2.818700007E0,5.184757109E0,-1.365212004E1,1.487303458E1
3.146226125E0,-7.317166491E0,1.692759576E0,-3.536360476E1,3.615232913E1
3.156147125E0,-6.283094589E0,-5.219382566E0,-1.768400795E1,1.947930618E1
3.166069125E0,-5.853588533E0,-1.351012391E1,6.373871443E-1,1.473751028E1
3.175991125E0,-1.819658189E1,-3.524936419E1,4.539500782E0,3.992793929E1
3.185912125E0,-3.555097995E1,-6.337260037E1,3.593009938E0,7.275210220E1
3.195834125E0,-4.052820710E1,-6.424477106E1,8.490265301E0,7.643304772E1
3.205756125E0,-2.615299348E1,-4.226305727E1,1.150529961E1,5.101487035E1
3.215677125E0,-1.040769303E1,-2.130892848E1,7.124027696E0,2.476170991E1
3.225599125E0,-3.343358973E0,-1.097604239E1,4.219238548E0,1.222511880E1
3.235521125E0,-7.367857173E-1,-7.091475661E0,2.970901568E0,7.723867967E0
3.245443125E0,1.732018366E-1,-5.345756099E0,3.767957461E-1,5.361817060E0
3.255364125E0,1.260508544E0,-4.190066789E0,-4.676094371E0,6.404014370E0
3.265286125E0,2.313156758E0,-3.828615307E0,-1.009895887E1,1.104526866E1
3.275208125E0,2.165462523E0,-5.938994719E0,-9.811618509E0,1.167170699E1
3.285129125E0,1.106940488E0,-7.632278205E0,-6.607280597E0,1.015544902E1
3.295051125E0,-1.541425449E-1,-7.185653256E0,-5.792077578E0,9.230684444E0
3.304973125E0,-1.055520951E0,-5.376948656E0,-6.206461565E0,8.279243111E0
3.314894125E0,-1.205987351E0,-2.860958419E0,-6.556476479E0,7.254438117E0
3.324816125E0,-6.703864905E-1,-1.180991381E-1,-6.402766628E0,6.438849738E0
3.334738125E0,3.824546814E-2,2.351953034E0,-5.744266065E0,6.207232750E0
3.344660125E0,9.145065746E-1,5.028087398E0,-4.703690890E0,6.945696016E0
3.354581125E0,1.603896224E0,7.333307730E0,-3.880360242E0,8.450271059E0
3.364503125E0,2.178174369E0,8.927819465E0,-3.514158481E0,9.838684557E0
3.374425125E0,2.711455055E0,1.021800000E1,-3.611011176E0,1.117134344E1
3.384346125E0,3.202315653E0,1.112890732E1,-4.292422299E0,1.235039646E1
3.394268125E0,3.501380268E0,1.182169128E1,-4.908719414E0,1.327055292E1
3.404190125E0,3.560884458E0,1.215135145E1,-4.905551977E0,1.357938439E1
3.414111125E0,3.454207563E0,1.211573021E1,-4.111207146E0,1.325233914E1
3.424033125E0,2.954630229E0,1.191709562E1,-2.855398886E0,1.260556665E1
3.433955125E0,2.011767874E0,1.150248710E1,-1.537286789E0,1.177784658E1
3.443876125E0,9.408854109E-1,1.077881464E1,-7.784222782E-1,1.084776712E1
3.453798125E0,4.777505556E-1,1.037039481E1,4.841494560E-4,1.038139366E1
3.463720125E0,5.477557603E-1,1.030141170E1,6.156928778E-1,1.033432132E1
3.473642125E0,1.157846640E0,1.042665672E1,9.749835221E-1,1.053595615E1
3.483563125E0,2.502341082E0,1.041726375E1,1.225908669E0,1.078350347E1
3.493485125E0,3.837334090E0,1.018498428E1,1.946714530E0,1.105661499E1
3.503407125E0,4.787985228E0,9.968754244E0,2.873003391E0,1.142606722E1
3.513328125E0,5.065393803E0,9.580261728E0,2.978961078E0,1.123894293E1
3.523250125E0,5.056066909E0,9.202342731E0,2.845064517E0,1.087847951E1
3.533172125E0,5.193599269E0,8.866722493E0,3.129378946E0,1.074175282E1
3.543093125E0,5.413193792E0,8.565047681E0,3.518592424E0,1.072581938E1
3.553015125E0,5.647674741E0,8.257962440E0,4.216172268E0,1.085662389E1
3.562937125E0,5.728044720E0,8.035008692E0,5.005455165E0,1.106464832E1
3.572858125E0,5.562881343E0,8.075992411E0,5.208092762E0,1.110367203E1
3.582780125E0,5.307501860E0,8.101442417E0,4.658392510E0,1.074725853E1
3.592702125E0,5.114992225E0,8.123119799E0,4.110047643E0,1.044225610E1
3.602623125E0,4.766852514E0,8.290858290E0,3.542319256E0,1.019849203E1
3.612545125E0,4.386625621E0,8.555170564E0,2.943297740E0,1.005467201E1
3.622467125E0,4.340513602E0,8.741190959E0,2.638458999E0,1.010989335E1
3.632389125E0,4.377507473E0,8.812556226E0,2.215379033E0,1.008620955E1
3.642310125E0,4.212280362E0,8.569648855E0,1.042799383E0,9.605707569E0
3.652232125E0,4.082549942E0,8.085586522E0,3.825248480E-1,9.065883779E0
3.662154125E0,3.911685238E0,7.531433616E0,9.185496318E-1,8.536246665E0
3.672075125E0,3.342530422E0,6.684801813E0,1.485167048E0,7.620026644E0
3.681997125E0,-5.433449131E-1,9.892600107E-1,-7.418093526E0,7.503463909E0
3.691919125E0,-1.795892882E1,-2.827092983E1,-3.562547348E1,4.889726944E1
3.701840125E0,-3.045091918E1,-6.199968817E1,-1.075388796E1,6.990612218E1
3.711762125E0,-3.702380236E1,-7.004504527E1,6.809653316E0,7.952007096E1
3.721684125E0,-3.050979830E1,-6.635587787E1,4.987244596E0,7.320398164E1
3.731606125E0,-1.173805153E1,-4.455051610E1,3.664503844E0,4.621643568E1
3.741527125E0,-4.010107618E0,-2.421814280E1,5.389126067E0,2.513249060E1
3.751449125E0,-7.869144818E-1,-1.558821383E1,5.571808287E0,1.657276961E1
3.761371125E0,8.575055775E-1,-1.011635083E1,4.284395242E0,1.101961490E1
3.771292125E0,1.419680864E0,-6.799863907E0,2.657296389E0,7.437396521E0
3.781214125E0,1.652531902E0,-4.307675931E0,1.463040015E0,4.840187981E0
3.791136125E0,1.625176288E0,-1.940178074E0,3.645358890E-1,2.557024705E0
3.801057125E0,1.247229517E0,6.503056902E-1,-2.755226727E0,3.093501782E0
3.810979125E0,4.209381312E-1,3.460356495E0,-1.206777252E1,1.256114603E1
3.820901125E0,-7.742950210E-1,4.772247739E0,-1.581118454E1,1.653382707E1
3.830822125E0,-6.427490410E-1,4.319380302E0,-8.721860064E0,9.754025605E0
3.840743167E0,-3.808472818E-1,4.627225097E0,-5.213403788E0,6.981105629E0
3.850665167E0,-1.851155385E-1,5.291781036E0,-4.205750776E0,6.762067279E0
3.860586167E0,2.245409748E-1,6.524168859E0,-3.541862589E0,7.426977080E0
3.870508167E0,5.815073508E-1,7.816709912E0,-3.143782393E0,8.445263310E0
3.880430167E0,1.198835037E0,8.604685956E0,-2.757832831E0,9.115013317E0
3.890352167E0,1.656208046E0,9.274654663E0,-2.403382804E0,9.723090718E0
3.900273167E0,1.860320019E0,9.817095011E0,-2.085261966E0,1.020707904E1
3.910195167E0,1.927876410E0,1.034465537E1,-1.917938774E0,1.069612506E1
3.920117167E0,1.836432681E0,1.070832411E1,-1.891516376E0,1.102807891E1
3.930038167E0,1.309779230E0,1.079829171E1,-1.885785520E0,1.103969259E1
3.939960167E0,2.004311505E-1,1.045140447E1,-2.048590715E0,1.065217124E1
3.949882167E0,-5.580319494E-1,9.518740248E0,-1.876420619E0,9.717961201E0
3.959803167E0,-1.833765766E-1,8.621315437E0,-1.207293327E0,8.707368375E0
3.969725167E0,9.995671901E-1,8.328603237E0,-2.983624013E-1,8.393675391E0
3.979647167E0,2.290861909E0,8.636660870E0,2.287992096E-1,8.938249736E0
3.989568167E0,3.599663192E0,9.441034260E0,2.725773132E-1,1.010767042E1
3.999490167E0,4.499307314E0,9.902797651E0,4.186711657E-1,1.088505642E1
4.009412167E0,4.888904369E0,9.859767991E0,8.284907433E-1,1.103643093E1
4.019333167E0,5.089605369E0,9.641380919E0,1.245573732E0,1.097322937E1
4.029255167E0,5.278141236E0,9.308936303E0,1.618285929E0,1.082284248E1
4.039177167E0,5.352262881E0,8.995866437E0,2.047045881E0,1.066596117E1
4.049099167E0,5.354488331E0,8.720718103E0,2.473590907E0,1.052806352E1
4.059020167E0,5.409482564E0,8.477292084E0,3.082419373E0,1.051799847E1
4.068942167E0,5.465869018E0,8.223456851E0,3.657839187E0,1.052999308E1
4.078864167E0,5.209299628E0,7.961477031E0,3.615543938E0,1.017811756E1
4.088785167E0,4.969545075E0,7.669837795E0,3.430814023E0,9.761827437E0
4.098707167E0,4.858447100E0,7.447448888E0,3.623542929E0,9.602034499E0
4.108629167E0,4.581899820E0,7.244199672E0,3.426894050E0,9.231242477E0
4.118550167E0,4.254000830E0,7.288549048E0,2.846080763E0,8.906157758E0
4.128472167E0,3.868013553E0,7.545382733E0,2.184807451E0,8.756010110E0
4.138394167E0,3.632597342E0,7.795506154E0,1.788959430E0,8.784421181E0
4.148315167E0,3.478326743E0,7.989148979E0,1.951044978E0,8.929268439E0
4.158237167E0,3.331143847E0,8.033986598E0,2.276333917E0,8.990169970E0
4.168159167E0,2.730457044E0,7.465150748E0,2.267997103E0,8.266056026E0
4.178080167E0,-2.838684328E0,4.955622270E0,-7.403648565E0,9.350418860E0
4.188002167E0,-9.221023416E0,4.317823774E-1,-1.845615149E1,2.063596948E1
4.197924167E0,-8.061541017E0,-4.627519212E0,-1.148021388E1,1.477151612E1
4.207846167E0,-4.261965030E0,-8.156095172E0,-1.005414698E0,9.257272443E0
4.217767167E0,-1.164604676E1,-2.384929108E1,1.276894781E0,2.657159293E1
4.227689167E0,-2.908207664E1,-6.111933138E1,-1.470017263E1,6.926351800E1
4.237611167E0,-3.180094070E1,-6.543311707E1,-3.126081409E0,7.281871342E1
4.247532167E0,-1.870523469E1,-3.973858974E1,1.270266553E1,4.572088178E1
4.257454167E0,-7.316112238E0,-2.467920043E1,9.622012017E0,2.748038478E1
4.267376167E0,-2.961584907E0,-1.731418559E1,6.928343607E0,1.888263628E1
4.277297167E0,-1.639855723E0,-1.336883764E1,4.476834126E0,1.419355454E1
4.287219167E0,-6.178685537E-1,-1.121260436E1,2.656736226E0,1.153960595E1
4.297141167E0,3.435897008E-1,-9.663437786E0,1.042032667E-1,9.670105586E0
4.307062167E0,1.153658279E0,-8.961777170E0,-3.688196762E0,9.759465806E0
4.316984167E0,2.061542590E0,-8.236792011E0,-7.534299921E0,1.135166841E1
4.326906167E0,2.376595539E0,-7.925284520E0,-8.577834372E0,1.191795216E1
4.336828167E0,1.352054014E0,-7.729789882E0,-7.398569089E0,1.078501397E1
4.346749167E0,-2.746998525E-1,-6.662254949E0,-6.583040380E0,9.370033173E0
4.356671167E0,-1.292611220E0,-4.919150847E0,-6.134803353E0,7.968983687E0
4.366593167E0,-1.589720234E0,-2.018424929E0,-6.070520234E0,6.591848415E0
4.376514167E0,-1.487107154E0,1.204969643E0,-5.910783657E0,6.212954448E0
4.386436167E0,-1.160735457E0,4.333869703E0,-5.379141362E0,7.004633837E0
4.396358167E0,-6.792675340E-1,7.000773652E0,-4.693070592E0,8.455598601E0
4.406279167E0,-2.039735399E-1,9.210687293E0,-3.803880415E0,9.967340258E0
4.416201167E0,1.607950683E-1,1.059040682E1,-2.695569924E0,1.092925747E1
4.426123167E0,4.227371733E-1,1.134945845E1,-1.656629046E0,1.147751426E1
4.436044167E0,6.627710769E-1,1.182152288E1,-1.061722142E0,1.188759532E1
4.445966167E0,8.583260880E-1,1.206676329E1,-8.064707138E-1,1.212410388E1
4.455888167E0,1.204213745E0,1.198775103E1,-8.018146491E-1,1.207473446E1
4.465809167E0,1.554935148E0,1.183101057E1,-5.454271066E-1,1.194521348E1
4.475731167E0,1.618315311E0,1.184903870E1,-7.223884106E-2,1.195925922E1
4.485653167E0,1.504033674E0,1.182818052E1,3.199116568E-1,1.192771206E1
4.495574167E0,1.413868439E0,1.184232727E1,4.987394285E-1,1.193685386E1
4.505496167E0,1.523037125E0,1.179619625E1,5.229504097E-1,1.190560226E1
4.515418167E0,1.791830997E0,1.168935241E1,5.086142063E-1,1.183681995E1
4.525340167E0,2.073224450E0,1.154296971E1,5.791199327E-1,1.174196701E1
4.535261167E0,2.274136826E0,1.140238510E1,6.886605012E-1,1.164733178E1
4.545183167E0,2.456101592E0,1.123188029E1,8.693021889E-1,1.153010218E1
4.555105167E0,2.684785904E0,1.106325010E1,1.178818556E0,1.144522570E1
4.565026167E0,2.925774220E0,1.077296040E1,1.527484517E0,1.126721082E1
4.574948167E0,3.041093884E0,1.034434897E1,1.836830438E0,1.093744731E1
4.584870167E0,3.078552609E0,9.917462468E0,2.008529102E0,1.057675456E1
4.594791167E0,3.069107602E0,9.577281402E0,2.122396902E0,1.027853633E1
4.604713167E0,3.019410946E0,9.278886293E0,2.230309606E0,1.000943826E1
4.614635167E0,2.959544814E0,9.043120710E0,2.312774935E0,9.792132841E0
4.624556167E0,2.937959817E0,8.875306790E0,2.433806159E0,9.660542994E0
4.634478167E0,2.994553263E0,8.713738282E0,2.635766941E0,9.583519784E0
4.644400167E0,3.038964328E0,8.550692766E0,2.874032793E0,9.518913565E0
4.654321167E0,3.074992532E0,8.416313810E0,3.092202349E0,9.479010106E0
4.664243167E0,3.106786182E0,8.356513166E0,3.141436782E0,9.452621739E0
4.674165167E0,3.164934111E0,8.266854885E0,3.094235426E0,9.377205900E0
4.684086167E0,3.130095815E0,8.131049209E0,3.221330506E0,9.289156650E0
4.694008167E0,3.001607052E0,7.969361417E0,3.538764734E0,9.221888208E0
4.703930167E0,2.850768768E0,7.738311029E0,3.687957318E0,9.033790419E0
4.713851167E0,2.492222182E0,7.298502179E0,4.019706407E0,8.696973328E0
4.723773167E0,2.076319089E0,6.271256316E0,4.604769157E0,8.052555851E0
4.733695167E0,1.605007779E0,4.230900235E0,4.888550321E0,6.661418093E0
4.743617167E0,-1.322523236E-1,-1.256266097E0,4.786707904E0,4.950582566E0
4.753538167E0,-7.389763767E0,-1.995014783E1,1.105316249E1,2.397476607E1
4.763460167E0,-2.145216187E1,-5.164661749E1,1.158927381E1,5.711286733E1
4.773382167E0,-3.107076613E1,-6.861541975E1,-2.455956172E1,7.922525107E1
4.783303167E0,-2.576235971E1,-6.450060780E1,-6.099998737E1,9.243931005E1
4.793225167E0,-1.310354596E1,-3.685831212E1,2.254255065E1,4.514869521E1
4.803147167E0,-3.203224895E0,-2.270471967E1,2.167291999E1,3.155123462E1
4.813068167E0,-4.647317299E-1,-1.591396455E1,1.404240765E1,2.122874127E1
4.822990167E0,8.028472674E-1,-1.067201056E1,1.306752711E1,1.689072639E1
4.832912167E0,1.425103864E0,-7.437816185E0,1.109874270E1,1.343629860E1
4.842836917E0,8.380992535E-1,-5.707619811E0,9.072398304E0,1.075117413E1
4.852758917E0,1.133248866E-2,-4.794764782E0,6.955032054E0,8.447625028E0
4.862680917E0,1.403781992E-1,-4.300066949E0,6.011073346E0,7.392109616E0
4.872601917E0,9.006485273E-1,-4.123708493E0,5.364198217E0,6.825742599E0
4.882523917E0,1.665814437E0,-4.239414951E0,4.125067971E0,6.145222748E0
4.892445917E0,1.944023496E0,-3.669706696E0,2.711812320E0,4.959828691E0
4.902366917E0,1.902310190E0,-2.401171972E0,1.555758144E0,3.435810574E0
4.912288917E0,1.806605888E0,-6.278020960E-1,1.034885834E0,2.174614678E0
4.922210917E0,1.466370735E0,1.243724989E0,6.462265994E-1,2.028473268E0
4.932132917E0,6.186767851E-1,3.108072277E0,-2.900096172E-1,3.182291599E0
4.942053917E0,-1.626023549E0,5.307216516E0,-4.684858178E0,7.263497496E0
4.951975917E0,-8.223622327E0,1.024249983E1,-2.554685941E1,2.872592544E1
4.961897917E0,-1.063566310E1,1.359455303E1,-2.919007003E1,3.391149348E1
4.971818917E0,-7.161921161E0,1.188578495E1,-1.355215487E1,1.939654351E1
4.981740917E0,-5.717440794E0,1.022755669E1,-5.858795478E0,1.310028738E1
4.991662917E0,-4.738855168E0,1.001809305E1,-2.948129295E0,1.146779852E1
5.001583917E0,-3.465836506E0,1.008164527E1,-2.135497881E0,1.087253168E1
5.011505917E0,-2.652573593E0,1.025363059E1,-2.419424055E0,1.086400938E1
5.021427917E0,-1.354414974E0,1.019221845E1,-2.117182063E0,1.049753384E1
5.031348917E0,4.644808844E-2,9.677766387E0,-1.205601143E0,9.752681364E0
5.041270917E0,1.343835022E0,9.131996049E0,1.766607571E-1,9.232034090E0
5.051192917E0,2.453703357E0,8.650590692E0,1.814338392E0,9.173069458E0
5.061113917E0,3.145646777E0,8.275759025E0,2.280741549E0,9.142486702E0
5.071035917E0,3.788413945E0,8.161900288E0,2.105611593E0,9.241336305E0
5.080957917E0,4.536794106E0,8.019503630E0,2.089838144E0,9.447876094E0
5.090878917E0,5.212027354E0,7.930787335E0,2.533527206E0,9.822493420E0
5.100800917E0,5.727417898E0,7.703489690E0,3.192482682E0,1.011627475E1
5.110722917E0,5.968953513E0,7.334995236E0,3.662642090E0,1.014127745E1
5.120643917E0,5.746155301E0,7.308728374E0,3.823316560E0,1.005254001E1
5.130565917E0,5.492525890E0,7.353066641E0,3.868547112E0,9.959974219E0
5.140487917E0,5.282431923E0,7.453935789E0,3.720420767E0,9.864419722E0
5.150408917E0,5.134533035E0,7.625223539E0,3.546263788E0,9.853093442E0
5.160330917E0,4.902922484E0,7.832708479E0,3.127987894E0,9.755730586E0
5.170252917E0,4.602387587E0,8.040926074E0,2.318445565E0,9.550583933E0
5.180174917E0,4.407729684E0,8.375773895E0,1.080379584E0,9.526221148E0
5.190095917E0,4.860865509E0,8.575920578E0,-1.650195354E0,9.994877286E0
5.200017917E0,5.241196189E0,8.025989946E0,-8.494011612E0,1.280761045E1
5.209939917E0,2.371202945E0,6.953633400E0,-2.273035152E1,2.388816655E1
5.219860917E0,-1.378382857E0,5.743733969E0,-2.858198767E1,2.918596304E1
5.229782917E0,-1.847012633E-1,5.438522760E0,-9.501167611E0,1.094914747E1
5.239704917E0,2.030393595E0,6.354724735E0,9.087612759E0,1.127340810E1
5.249625917E0,7.910215661E-1,4.132997380E0,9.773554305E0,1.064094668E1
5.259547917E0,-1.326290305E0,-5.910552692E-1,1.195551299E1,1.204336677E1
5.269469917E0,-2.922304190E0,-5.874380647E0,1.166693185E1,1.338527208E1
5.279390917E0,-5.477730095E0,-1.955349377E1,-1.207205385E1,2.362369848E1
5.289312917E0,-1.272455634E1,-4.352057350E1,-3.730841207E1,5.871858533E1
5.299234917E0,-2.201281630E1,-4.965078971E1,1.360602176E1,5.599007795E1
5.309155917E0,-2.407078829E1,-4.771158169E1,1.898172729E1,5.671070311E1
5.319077917E0,-1.587459642E1,-2.910535557E1,9.317760336E0,3.443755497E1
5.328999917E0,-7.253656958E0,-1.453423333E1,3.353740704E0,1.658635145E1
5.338920917E0,-3.456344136E0,-1.178552859E1,2.889366531E0,1.261718819E1
5.348842917E0,-1.374817225E0,-1.385837004E1,4.158454403E0,1.453400446E1
5.358764917E0,-4.739972278E-1,-1.657310948E1,4.375969656E0,1.714764537E1
5.368685917E0,3.003065640E-1,-1.712336288E1,3.919324332E0,1.756874621E1
5.378607917E0,1.239923129E0,-1.622330799E1,3.094150057E0,1.656221290E1
5.388529917E0,2.039797964E0,-1.454700716E1,1.702178271E0,1.478761657E1
5.398451917E0,2.581741592E0,-1.235979884E1,-9.839524931E-1,1.266484029E1
5.408372917E0,3.051204597E0,-9.287667056E0,-6.564618142E0,1.177560275E1
5.418294917E0,2.880937185E0,-5.364012861E0,-1.373207369E1,1.502139411E1
5.428216917E0,1.535226962E0,-2.070307274E0,-1.612787207E1,1.633252435E1
5.438137917E0,2.485765395E-1,3.520678711E-1,-1.262306037E1,1.263041548E1
5.448059917E0,-5.400380203E-1,2.028630075E0,-7.979592290E0,8.251113510E0
5.457981917E0,-1.072055853E0,3.756673504E0,-5.030014640E0,6.368904682E0
5.467902917E0,-1.427314550E0,5.725774246E0,-3.323301854E0,6.772448062E0
5.477824917E0,-1.666502654E0,7.813324374E0,-2.002118068E0,8.236124430E0
5.487746917E0,-1.604966556E0,9.355889445E0,-1.076446308E0,9.553393199E0
5.497667917E0,-1.523903682E0,1.043020949E1,-6.874245460E-1,1.056333777E1
5.507589917E0,-1.364910872E0,1.110883734E1,-3.589232198E-1,1.119812817E1
5.517511917E0,-1.125787161E0,1.146698163E1,-2.229578777E-1,1.152426894E1
5.527432917E0,-1.037059537E0,1.191946491E1,4.316765428E-2,1.196457269E1
5.537354917E0,-8.370447081E-1,1.231313221E1,2.699659467E-1,1.234450284E1
5.547276917E0,-6.087776683E-1,1.237537465E1,2.655419616E-1,1.239318444E1
5.557197917E0,-6.894868590E-1,1.231630959E1,3.663514495E-1,1.234103267E1
5.567119917E0,-7.026676525E-1,1.206537633E1,5.497189629E-1,1.209831553E1
5.577041917E0,-5.494502833E-1,1.166678684E1,6.326569661E-1,1.169683998E1
5.586962917E0,-3.067021754E-1,1.145973576E1,6.796628789E-1,1.148396933E1
5.596884917E0,6.184497669E-2,1.168903783E1,9.338516490E-1,1.172644486E1
5.606806917E0,4.050410137E-1,1.216591335E1,1.369240297E0,1.224942141E1
5.616727917E0,7.788342145E-1,1.255734468E1,1.840489625E0,1.271538007E1
5.626649917E0,1.314574824E0,1.274960932E1,2.183646194E0,1.300188276E1
5.636571917E0,1.957026972E0,1.264117972E1,2.183875551E0,1.297685215E1
5.646492917E0,2.424959907E0,1.250017528E1,1.975906462E0,1.288561287E1
5.656414917E0,2.860363465E0,1.211285923E1,1.753231480E0,1.256888453E1
5.666336917E0,3.240177836E0,1.124995638E1,1.419395227E0,1.179300444E1
5.676257917E0,3.215841140E0,1.026066128E1,9.676662433E-1,1.079625778E1
5.686179917E0,3.179449531E0,9.447814107E0,4.136634640E-1,9.977034037E0
5.696101917E0,3.079157796E0,8.754648326E0,-2.565454173E-1,9.283905191E0
5.706022917E0,2.830911916E0,8.194559911E0,-1.338210293E0,8.772438726E0
5.715944917E0,2.340160662E0,7.639966709E0,-3.522561514E0,8.732346927E0
5.725866917E0,1.529245991E0,7.039638340E0,-8.095285299E0,1.083645446E1
5.735787917E0,7.589785320E-1,5.999042700E0,-1.453579220E1,1.574337373E1
5.745709917E0,6.817640027E-1,5.582547868E0,-7.285324309E0,9.203564154E0
5.755631917E0,9.311100358E-1,6.060667675E0,2.711512942E0,6.704547785E0
5.765552917E0,-6.023412725E-1,5.028499042E0,3.991902604E0,6.448558290E0
5.775474917E0,-3.134610743E0,3.040255101E0,4.247571816E0,6.091863584E0
5.785396917E0,-3.614924133E0,1.059788541E0,3.801694433E0,5.351981764E0
5.795317917E0,-3.052672248E0,-1.431712972E0,2.197253542E0,4.024491647E0
5.805239917E0,-6.544797835E0,-1.314895193E1,-1.419555441E1,2.042652884E1
5.815161917E0,-1.398855479E1,-3.797602844E1,-3.310472478E1,5.228557357E1
5.825083917E0,-2.063358209E1,-5.049607724E1,5.034186044E0,5.478085027E1
5.835001250E0,-2.443597731E1,-4.820084395E1,1.415045718E1,5.586299118E1
5.844923250E0,-1.896742384E1,-3.358833161E1,1.122762820E1,4.017460420E1
5.854845250E0,-9.163051781E0,-2.215598888E1,8.256531626E0,2.535783263E1
5.864766250E0,-3.939525585E0,-1.677519978E1,7.100524228E0,1.863718417E1
5.874688250E0,-1.440544899E0,-1.445806399E1,7.091974429E0,1.616808230E1
5.884610250E0,-2.126930541E-1,-1.385198021E1,6.182622467E0,1.517061022E1
5.894531250E0,6.049605328E-1,-1.333062024E1,5.288155178E0,1.435395410E1
5.904453250E0,1.417440211E0,-1.270846363E1,4.359682821E0,1.351003401E1
5.914375250E0,2.174547926E0,-1.194497280E1,3.407405280E0,1.261037052E1
5.924296250E0,2.881634173E0,-1.096779314E1,2.193328160E0,1.155019438E1
5.934218250E0,3.432485157E0,-9.941218536E0,-4.517032564E-1,1.052681415E1
5.944140250E0,4.239895007E0,-8.199065191E0,-6.641054115E0,1.137123474E1
5.954061250E0,4.335280636E0,-4.330472471E0,-1.698966980E1,1.806091166E1
5.963983250E0,2.288687330E0,-5.966767824E-1,-1.622341441E1,1.639491653E1
5.973905250E0,1.025502954E0,1.640217081E0,-9.508204150E0,9.702984826E0
5.983826250E0,1.536792261E-1,3.899738499E0,-7.150688660E0,8.146405709E0
5.993748250E0,-5.973362752E-1,6.191569292E0,-6.122310777E0,8.727830783E0
6.003670250E0,-1.258264090E0,8.317721568E0,-5.117619379E0,9.846712584E0
6.013591250E0,-1.922787285E0,1.000729792E1,-4.239060609E0,1.103688169E1
6.023513250E0,-2.312656236E0,1.084462856E1,-3.420760320E0,1.160413498E1
6.033435250E0,-2.637420826E0,1.169085983E1,-2.884006389E0,1.232678729E1
6.043356250E0,-3.329606614E0,1.246001894E1,-2.766991909E0,1.319070114E1
6.053278250E0,-4.067627848E0,1.251358880E1,-2.908036106E0,1.347561408E1
6.063200250E0,-5.411073591E0,1.199748781E1,-2.972247305E0,1.349272713E1
6.073121250E0,-6.346905254E0,1.085700243E1,-2.558630472E0,1.283371723E1
6.083043250E0,-6.634587094E0,9.814326940E0,-1.688500464E0,1.196619376E1
6.092965250E0,-6.078219847E0,9.299305354E0,-5.898694174E-1,1.112518685E1
6.102886250E0,-5.038128237E0,9.294845683E0,7.101099886E-2,1.057269762E1
6.112808250E0,-3.185849309E0,9.642783081E0,4.857283504E-1,1.016704644E1
6.122730250E0,-1.085218301E0,1.006598175E1,7.269177369E-1,1.015037421E1
6.132651250E0,3.544932961E-1,1.019529877E1,1.024816929E0,1.025280606E1
6.142573250E0,1.263450278E0,1.007615707E1,1.390978929E0,1.024988148E1
6.152495250E0,1.908446551E0,9.910338221E0,1.761553091E0,1.024500079E1
6.162416250E0,2.424945289E0,9.666032780E0,2.190465070E0,1.020346444E1
6.172338250E0,2.863103470E0,9.469451728E0,2.683173827E0,1.025023411E1
6.182260250E0,3.280204366E0,9.310098730E0,2.894998569E0,1.028682146E1
6.192181250E0,3.635886109E0,9.126923005E0,2.898663312E0,1.024317531E1
6.202103250E0,4.061051777E0,8.860218050E0,3.083285930E0,1.022263457E1
6.212025250E0,4.508523111E0,8.518313810E0,3.548471989E0,1.027035074E1
6.221946250E0,4.689915435E0,8.057428671E0,4.003778299E0,1.014631481E1
6.231868250E0,4.710115811E0,7.710785261E0,4.480554124E0,1.008547300E1
6.241790250E0,4.666152935E0,7.562060747E0,4.497180097E0,9.959034831E0
6.251711250E0,4.477556549E0,7.509671448E0,4.259872019E0,9.725748688E0
6.261633250E0,4.215324130E0,7.702340713E0,3.807162749E0,9.570240236E0
6.271555250E0,3.844375599E0,7.787413023E0,3.421348258E0,9.334272828E0
6.281476250E0,3.702917712E0,7.827927795E0,3.023475931E0,9.172211285E0
6.291398250E0,3.516794406E0,7.574510638E0,3.021880518E0,8.881036886E0
6.301320250E0,3.039875909E0,6.791804105E0,3.582812686E0,8.258692105E0
6.311241250E0,2.420530933E0,5.260497848E0,4.417463252E0,7.283254025E0
6.321163250E0,1.354148487E0,1.994185297E0,5.421424332E0,5.933155561E0
6.331085250E0,-2.391448637E0,-7.189468564E0,6.574646702E0,1.003162320E1
6.341006250E0,-1.687917964E1,-3.562592254E1,1.704429332E1,4.294905118E1
6.350928250E0,-3.387336232E1,-6.667725487E1,4.711578784E0,7.493637279E1
6.360850250E0,-3.761323678E1,-6.888778773E1,-6.624724596E1,1.027082298E2
6.370771250E0,-1.828333469E1,-4.690994714E1,-1.653797005E1,5.299365925E1
6.380693250E0,-5.381333483E0,-2.320452797E1,2.311728283E1,3.319363845E1
6.390615250E0,-2.004195438E0,-1.477378206E1,1.220124457E1,1.926530054E1
6.400536250E0,-1.070626648E0,-1.062671686E1,8.048492956E0,1.337354073E1
6.410458250E0,-5.071301830E-1,-8.171717763E0,5.660812265E0,9.953840852E0
6.420380250E0,4.335710406E-2,-5.925475956E0,4.663653250E0,7.540743119E0
6.430301250E0,5.044284770E-1,-3.915209647E0,4.499071087E0,5.985395167E0
6.440223250E0,1.020551678E0,-2.365636688E0,4.809369957E0,5.455987725E0
6.450145250E0,1.258819284E0,-1.751081459E0,4.608495880E0,5.088137827E0
6.460066250E0,1.492841519E0,-2.317607074E0,3.272764953E0,4.279120095E0
6.469988250E0,1.705595384E0,-3.130776431E0,2.094971999E0,4.135181296E0
6.479910250E0,1.728966120E0,-3.130583473E0,1.231904258E0,3.782520961E0
6.489831250E0,1.602408253E0,-1.862969685E0,4.575487179E-1,2.499543775E0
6.499753250E0,1.589543940E0,1.770870191E-1,-7.494189922E-1,1.766249862E0
6.509675250E0,1.529239120E0,2.918592669E0,-4.025099879E0,5.201748215E0
6.519596250E0,1.040892971E0,7.528809385E0,-1.471317801E1,1.656031509E1
6.529518250E0,-2.834391010E-1,1.212275622E1,-2.408821065E1,2.696819328E1
6.539440250E0,-2.710514823E-1,1.193103889E1,-1.518518163E1,1.931354185E1
6.549361250E0,-2.139738867E-1,1.113022645E1,-8.352726510E0,1.391746262E1
6.559283250E0,-2.453304577E-1,1.114046376E1,-5.711424009E0,1.252160069E1
6.569205250E0,-4.764387327E-1,1.141675171E1,-4.642709109E0,1.233385428E1
6.579126250E0,-1.228764303E0,1.135046534E1,-4.043717998E0,1.211175381E1
6.589048250E0,-2.234312464E0,1.081807869E1,-3.366480033E0,1.154799405E1
6.598970250E0,-2.770087425E0,9.690383509E0,-2.951334153E0,1.050177557E1
6.608891250E0,-3.039361646E0,8.732606077E0,-2.705312555E0,9.634046094E0
6.618813250E0,-2.970988692E0,8.378760068E0,-2.721022854E0,9.297008091E0
6.628735250E0,-2.246184796E0,8.425948268E0,-2.997847000E0,9.221119074E0
6.638656250E0,-8.539187492E-1,8.893637812E0,-3.224315509E0,9.498535743E0
6.648578250E0,1.353449452E0,9.477368858E0,-3.096405913E0,1.006181273E1
6.658500250E0,2.804079044E0,9.287345459E0,-2.188813963E0,9.945277851E0
6.668421250E0,3.214755312E0,8.737271571E0,-5.154683125E-1,9.324176843E0
6.678343250E0,3.386930085E0,8.185044152E0,8.707322717E-1,8.900809955E0
6.688265250E0,3.555152140E0,7.686439210E0,1.320593655E0,8.571138901E0
6.698186250E0,3.637797271E0,7.577703803E0,1.742335632E0,8.584340240E0
6.708108250E0,3.692742387E0,7.512006826E0,2.532786949E0,8.745376071E0
6.718030250E0,3.787845595E0,7.565631641E0,3.121518534E0,9.018338780E0
6.727951250E0,3.888589613E0,7.750293143E0,3.537708142E0,9.365017452E0
6.737873250E0,3.936245005E0,7.894826959E0,4.037608827E0,9.701783470E0
6.747795250E0,3.899625063E0,7.994673429E0,4.295736501E0,9.878017562E0
6.757716250E0,3.691413023E0,8.022524301E0,4.414933162E0,9.873148489E0
6.767638250E0,3.426403761E0,7.908041081E0,4.716395720E0,9.824548085E0
6.777560250E0,3.097977644E0,8.081839042E0,4.824741118E0,9.909173257E0
6.787481250E0,2.709814034E0,8.323126150E0,4.911980406E0,1.003718449E1
6.797403250E0,2.504582904E0,8.307569048E0,4.959918219E0,9.994469858E0
6.807325250E0,2.276414024E0,8.217383348E0,5.242753887E0,1.000969121E1
6.817246250E0,1.818675857E0,7.810862696E0,4.735747665E0,9.313670806E0
6.827168250E0,1.532917165E0,6.759843224E0,4.802216181E0,8.432472692E0
6.837094125E0,1.347562329E0,5.201895298E0,5.672675096E0,7.813762325E0
6.847015125E0,1.103541209E0,3.262848660E0,5.922528960E0,6.851301618E0
6.856937125E0,2.444577608E-1,-1.901533241E0,5.980722789E0,6.280496265E0
6.866859125E0,-7.305908847E0,-2.152875338E1,1.613831286E1,2.788025589E1
6.876780125E0,-2.365418119E1,-5.763169646E1,1.615770340E1,6.435840352E1
6.886702125E0,-2.632841696E1,-6.961729104E1,-3.843131604E1,8.376585703E1
6.896624125E0,-1.941705484E1,-6.581774692E1,-5.875612538E1,9.033980351E1
6.906545125E0,-7.653977807E0,-3.922537261E1,2.131063821E1,4.529190361E1
6.916467125E0,-3.748386245E0,-1.850555929E1,1.386533525E1,2.342549136E1
6.926389125E0,-3.951571727E0,-1.170637951E1,6.267529886E0,1.385410304E1
6.936310125E0,-2.532944239E0,-5.829390416E0,6.049569075E0,8.774672936E0
6.946232125E0,-2.082465243E0,-1.316564339E0,6.111211592E0,6.589150952E0
6.956154125E0,-2.605289499E0,8.600897545E-1,5.062401198E0,5.758054676E0
6.966075125E0,-3.181791049E0,1.853302483E0,3.718410494E0,5.233077582E0
6.975997125E0,-3.406066267E0,2.523908536E0,2.938238729E0,5.157969421E0
6.985919125E0,-3.055477157E0,3.263157393E0,2.181818354E0,4.974381184E0
6.995840125E0,-2.328605979E0,3.936551984E0,1.336988078E0,4.765121661E0
7.005762125E0,-1.365400869E0,4.528101343E0,7.084509873E-1,4.782250945E0
7.015684125E0,-5.079147331E-1,4.953541245E0,2.670838541E-1,4.986670435E0
7.025605125E0,1.300505546E-1,5.211206405E0,-9.677200377E-2,5.213727089E0
7.035527125E0,6.964026533E-1,5.793506053E0,-6.411184718E-1,5.870325539E0
7.045449125E0,1.318422584E0,6.725006098E0,-1.056264351E0,6.933948335E0
7.055370125E0,2.148504428E0,8.029894717E0,-1.529867842E0,8.451968768E0
7.065292125E0,3.572362250E0,9.586729333E0,-3.364142316E0,1.076961489E1
7.075214125E0,4.917484975E0,1.069072867E1,-7.323257536E0,1.386013849E1
7.085135125E0,5.576138735E0,1.130775493E1,-1.034285676E1,1.630746243E1
7.095057125E0,4.463649824E0,1.133617708E1,-6.446564028E0,1.378373202E1
7.104978125E0,3.075816697E0,1.090968819E1,-1.385218252E0,1.141931584E1
7.114900125E0,2.821171625E0,1.052044606E1,-8.806022803E-2,1.089249968E1
7.124822125E0,2.598585666E0,1.003957104E1,1.669193141E-1,1.037176437E1
7.134743125E0,2.221129477E0,9.348577502E0,7.157038736E-1,9.635431983E0
7.144665125E0,1.767955061E0,8.701056256E0,1.121543982E0,8.949408135E0
7.154587125E0,1.142835960E0,8.106299114E0,1.782430136E0,8.378258563E0
7.164508125E0,3.435060856E-1,7.629168656E0,2.915710577E0,8.174569039E0
7.174430125E0,3.738241911E-1,7.711376415E0,2.951289715E0,8.265299856E0
7.184352125E0,1.135927475E0,7.992300044E0,2.315207376E0,8.398057895E0
7.194273125E0,2.247423529E0,8.081926165E0,1.489088337E0,8.519731635E0
7.204195125E0,3.462167378E0,7.980507964E0,1.066326459E0,8.764254813E0
7.214117125E0,4.239024064E0,7.784581216E0,7.438593864E-1,8.895074846E0
7.224038125E0,4.546367460E0,7.542841533E0,2.574986596E-1,8.810801385E0
7.233960125E0,4.111173525E0,7.190142163E0,-7.418957452E-1,8.315666021E0
7.243882125E0,2.821249685E0,7.148898243E0,-2.997373960E0,8.249269454E0
7.253803125E0,1.348009495E0,7.619683887E0,-7.049531829E0,1.046769369E1
7.263725125E0,1.315997744E-1,8.302894199E0,-1.043731268E1,1.333764847E1
7.273647125E0,2.586925149E-1,8.608657969E0,-1.469920199E1,1.703650355E1
7.283568125E0,1.626674929E0,7.662186713E0,-1.764592737E1,1.930631838E1
7.293490125E0,2.950352991E-1,6.215382662E0,-4.117130668E0,7.461152217E0
7.303412125E0,-1.474571601E0,4.149402328E0,9.816400362E0,1.075888550E1
7.313333125E0,4.702409765E-1,2.065081617E0,1.283786953E1,1.301140203E1
7.323255125E0,8.931121972E-1,1.507820331E0,1.060380747E1,1.074764646E1
7.333177125E0,-2.809268740E0,-8.534467328E-1,1.960965511E0,3.530686607E0
7.343098125E0,-8.398589730E0,-1.156751398E1,-1.796900241E1,2.296146199E1
7.353020125E0,-4.388708692E0,-2.267280790E1,-2.622566735E1,3.494427865E1
7.362942125E0,-6.074368286E-1,-2.408988296E1,2.837454951E-1,2.409921061E1
7.372863125E0,-1.188193397E0,-2.277445590E1,1.660329865E1,2.820916821E1
7.382785125E0,-3.435848476E0,-2.084660083E1,9.200322518E0,2.304412627E1
7.392707125E0,-6.242241848E0,-1.986258928E1,5.523604426E-1,2.082770123E1
7.402628125E0,-7.384974312E0,-1.480432207E1,3.418755895E0,1.689359906E1
7.412550125E0,-6.376426676E0,-6.023529670E0,6.440129167E0,1.088195711E1
7.422472125E0,-4.071717390E0,-1.646900448E0,3.473794859E0,5.599858419E0
7.432393125E0,-3.392644861E0,-7.706501591E-1,-3.976197276E-1,3.501719902E0
7.442315125E0,-4.070834753E0,-3.438619471E0,-1.428951040E0,5.517037296E0
7.452236125E0,-3.255941344E0,-7.526233102E0,1.336385815E0,8.308505629E0
7.462158125E0,-1.846948021E0,-9.910180346E0,3.001877193E0,1.051827734E1
7.472080125E0,-6.597726247E-1,-1.022150950E1,1.296973389E0,1.032456761E1
7.482002125E0,7.579204783E-1,-1.034915889E1,-7.348172522E-1,1.040285968E1
7.491923125E0,1.385511197E0,-9.438068553E0,-2.234121698E0,9.797350614E0
7.501845125E0,1.349449664E0,-7.839523408E0,-3.033940108E0,8.513749717E0
7.511766125E0,1.315536106E0,-6.410767373E0,-3.375212849E0,7.363466259E0
7.521688125E0,1.273215713E0,-4.845363078E0,-3.945220189E0,6.376784766E0
7.531610125E0,9.925104779E-1,-2.645449346E0,-4.643404927E0,5.435502609E0
7.541531125E0,3.341563877E-1,-3.146708339E-1,-5.105336133E0,5.125927746E0
7.551453125E0,-3.128239909E-1,1.893549453E0,-5.060919514E0,5.412605168E0
7.561375125E0,-6.179802355E-1,3.299403114E0,-3.981786629E0,5.207934834E0
7.571296125E0,-8.022078744E-1,4.474006412E0,-2.577636262E0,5.225368843E0
7.581218125E0,-9.221871847E-1,5.683587754E0,-1.890997728E0,6.060484417E0
7.591140125E0,-1.057954270E0,6.654140768E0,-1.605219741E0,6.926296775E0
7.601061125E0,-9.583963600E-1,7.522798448E0,-1.367776008E0,7.705960763E0
7.610983125E0,-5.955640572E-1,8.309749475E0,-1.306554490E0,8.432894966E0
7.620905125E0,-4.446632087E-2,8.806000328E0,-1.174960636E0,8.884151706E0
7.630826125E0,6.035785434E-1,9.207619259E0,-7.814990100E-1,9.260415767E0
7.640748125E0,1.342735307E0,9.582349184E0,-7.705542648E-1,9.706601251E0
7.650670125E0,2.348104396E0,1.008297609E1,-1.550342160E0,1.046821675E1
7.660591125E0,3.378061613E0,1.035638254E1,-2.012533421E0,1.107773670E1
7.670513125E0,3.827279803E0,1.019036021E1,-1.325148636E0,1.096574351E1
7.680435125E0,3.807300159E0,9.480671366E0,-3.625609919E-2,1.021665202E1
7.690356125E0,3.720043622E0,8.602094470E0,1.125344599E0,9.439340776E0
7.700278125E0,3.812245442E0,8.252766019E0,1.596927073E0,9.229926238E0
7.710199125E0,3.945219312E0,8.333597928E0,1.150811563E0,9.291823131E0
7.720121125E0,4.188072304E0,8.629481074E0,3.856496000E-1,9.599823896E0
7.730043125E0,4.398401914E0,8.815894986E0,-2.455561602E-1,9.855264666E0
7.739964125E0,4.521765885E0,8.896106506E0,-6.750693794E-1,1.000213959E1
7.749886125E0,4.676231781E0,8.871484466E0,-4.876088150E-1,1.004032582E1
7.759808125E0,4.438007444E0,8.568194652E0,1.218300272E0,9.725951122E0
7.769729125E0,4.198672721E0,8.412638251E0,2.141257242E0,9.642941332E0
7.779651125E0,3.620921622E0,8.351862876E0,1.813226252E0,9.281835827E0
7.789573125E0,2.812568616E0,8.077925500E0,2.044419311E0,8.794491056E0
7.799494125E0,2.197397968E0,7.303637788E0,2.752740198E0,8.108591824E0
7.809416125E0,1.513934472E0,6.154199152E0,3.155551668E0,7.079807280E0
7.819338125E0,-8.306642264E-2,3.855811876E0,4.048553646E0,5.591508909E0
7.829259125E0,-1.591372072E0,7.801302499E-1,4.395262836E0,4.739135330E0
7.839178625E0,-3.475904242E0,-4.129131786E0,2.663069053E0,6.018602527E0
7.849100625E0,-9.033516659E0,-1.782834764E1,-1.788350559E1,2.681928737E1
7.859021625E0,-1.399509549E1,-4.101668349E1,-4.530209381E1,6.269378539E1
7.868943625E0,-1.670446016E1,-4.671633881E1,7.601985535E-1,4.961887950E1
7.878865625E0,-1.651928703E1,-4.373448804E1,1.850795782E1,5.028058065E1
7.888786625E0,-9.072996474E0,-2.757588768E1,1.522537890E1,3.278049738E1
7.898708625E0,-3.066383676E0,-1.428737675E1,1.129208790E1,1.846735207E1
7.908630625E0,-7.302181247E-1,-8.037766238E0,7.499137105E0,1.101707592E1
7.918551625E0,5.296992660E-3,-4.312510409E0,5.560484569E0,7.036814814E0
7.928473625E0,1.276964656E-1,-2.300705112E0,4.323618364E0,4.899308743E0
7.938395625E0,-3.646961027E-1,-1.523886141E0,3.820827985E0,4.129643896E0
7.948316625E0,-1.543724866E0,-2.126511880E0,3.069630343E0,4.040763502E0
7.958238625E0,-2.889522652E0,-3.491689385E0,1.883680522E0,4.908104342E0
7.968159625E0,-4.371445372E0,-4.790201030E0,4.634234520E-1,6.501563031E0
7.978081625E0,-5.842875849E0,-6.149969861E0,-5.011497093E0,9.852737213E0
7.988003625E0,-6.174224696E0,-6.220726433E0,-1.743912539E1,1.951772482E1
7.997924625E0,-5.021266036E0,-3.009537338E0,-1.667696538E1,1.767460331E1
8.007846625E0,-3.319689444E0,-1.183219171E-1,-6.742158905E0,7.516052473E0
8.017768625E0,-1.525579787E0,1.507256075E0,-1.187168380E0,2.451241180E0
8.027689625E0,-2.645865083E-1,3.002007294E0,1.254985557E0,3.264512607E0
8.037611625E0,5.899986774E-1,4.305611864E0,2.184379435E0,4.863939296E0
8.047533625E0,1.201046162E0,5.758342068E0,2.174570146E0,6.271345196E0
8.057454625E0,1.812975698E0,7.401051816E0,2.325686756E0,7.966885700E0
8.067376625E0,2.544299532E0,8.761795962E0,2.632103076E0,9.495814615E0
8.077298625E0,3.279195136E0,9.806931381E0,2.838647783E0,1.072319659E1
8.087219625E0,3.945462848E0,1.046576290E1,2.848581033E0,1.154180592E1
8.097141625E0,4.552141293E0,1.083948418E1,2.811852332E0,1.208813141E1
8.107063625E0,5.081809861E0,1.093171582E1,3.038186356E0,1.243212687E1
8.116984625E0,5.379638375E0,1.083823287E1,3.299100228E0,1.254160529E1
8.126906625E0,5.372236969E0,1.068573515E1,3.495230459E0,1.246043746E1
8.136827625E0,5.050750621E0,1.055311913E1,3.370674241E0,1.217537885E1
8.146749625E0,4.729380047E0,1.056980825E1,3.415835211E0,1.207293719E1
8.156671625E0,4.240134158E0,1.070944678E1,3.284709646E0,1.197749162E1
8.166592625E0,3.799249128E0,1.082221852E1,3.018702556E0,1.186032347E1
8.176514625E0,3.824803507E0,1.104075002E1,2.631391762E0,1.197712425E1
8.186436625E0,4.085665923E0,1.126254894E1,1.510740577E0,1.207559571E1
8.196357625E0,4.245343443E0,1.130782276E1,-9.817918007E-1,1.211832132E1
8.206279625E0,3.620957875E0,1.121962804E1,-7.164264725E0,1.379558184E1
8.216201625E0,1.696457940E0,1.062642216E1,-1.665736201E1,1.983094871E1
8.226122625E0,-5.588894436E-1,8.832913308E0,-1.759119509E1,1.969220302E1
8.236044625E0,-2.006253950E0,6.442893146E0,-8.270112369E0,1.067383181E1
8.245966625E0,-2.005516031E0,4.187731411E0,6.444672453E-1,4.687699538E0
8.255887625E0,-7.374768582E-1,2.529248798E0,5.940989204E0,6.498947940E0
8.265809625E0,2.787209827E-1,1.360042480E0,7.125825130E0,7.259806107E0
8.275731625E0,-9.671899876E-1,-1.059425429E0,4.271973417E0,4.506394966E0
8.285652625E0,-2.864143690E0,-6.213422091E0,-1.683813921E0,7.045932335E0
8.295574625E0,-4.696185112E0,-1.486959337E1,-1.007665993E1,1.856604527E1
8.305495625E0,-8.141392933E0,-2.719644314E1,-5.629679350E0,2.894170154E1
8.315417625E0,-1.136901738E1,-3.871494108E1,8.027273995E0,4.114047092E1
8.325339625E0,-1.071187454E1,-4.158596841E1,1.288265920E1,4.483413803E1
8.335260625E0,-4.431043118E0,-2.811309477E1,9.605946207E0,3.003755055E1
8.345182625E0,6.516227755E-1,-1.353464947E1,3.135999749E0,1.390848098E1
8.355104625E0,1.758865857E0,-6.922398158E0,-8.196393013E-1,7.189229023E0
8.365025625E0,1.141821176E0,-4.373642464E0,-1.387405257E0,4.728360958E0
8.374947625E0,-2.707705235E-1,-3.601062723E0,-1.858362079E-2,3.611276058E0
8.384869625E0,-1.386477450E0,-3.927394075E0,1.133680390E0,4.316477171E0
8.394790625E0,-2.278971889E0,-4.849528050E0,1.462850565E0,5.554418687E0
8.404712625E0,-2.761531779E0,-5.397705102E0,9.487914312E-1,6.136895250E0
8.414634625E0,-3.139317167E0,-4.931207805E0,-2.448252217E-1,5.850817215E0
8.424555625E0,-3.558350860E0,-3.634088382E0,-2.086816303E0,5.497568689E0
8.434477625E0,-4.172357912E0,-1.644461575E0,-4.402479762E0,6.284477104E0
8.444399625E0,-4.877148542E0,7.304979140E-1,-6.371369419E0,8.056956831E0
8.454320625E0,-5.368315242E0,2.755491021E0,-6.736902258E0,9.044191027E0
8.464242625E0,-5.566971470E0,4.411808410E0,-5.465276695E0,8.962392211E0
8.474163625E0,-5.281851879E0,5.717230294E0,-3.320984602E0,8.462483101E0
8.484085625E0,-4.572013932E0,6.977029279E0,-1.425300915E0,8.462489684E0
8.494007625E0,-3.684956819E0,8.394818861E0,-2.904733745E-1,9.172582256E0
8.503928625E0,-2.296153055E0,9.633546234E0,2.661851370E-1,9.906986748E0
8.513850625E0,-7.150846535E-1,1.062072347E1,8.870776514E-1,1.068166746E1
8.523772625E0,1.159052336E0,1.137979146E1,1.491087792E0,1.153544099E1
8.533693625E0,2.980502989E0,1.145803773E1,1.994691081E0,1.200619920E1
8.543615625E0,4.317754484E0,1.088515327E1,2.351029905E0,1.194390669E1
8.553537625E0,5.433542687E0,1.015592713E1,2.472557119E0,1.178048304E1
8.563458625E0,6.669713073E0,9.511800773E0,1.536344218E0,1.171835227E1
8.573380625E0,7.870817707E0,8.656641390E0,-1.207780912E0,1.176205536E1
8.583302625E0,8.883404599E0,7.760916365E0,-3.695519814E0,1.236137399E1
8.593223625E0,8.543344570E0,7.361611177E0,-3.567293884E0,1.182825605E1
8.603145625E0,7.476805419E0,7.482347994E0,-1.793670824E0,1.072871874E1
8.613066625E0,6.643387738E0,7.844841451E0,-3.060396127E-1,1.028444448E1
8.622988625E0,5.852641869E0,8.308750185E0,3.547214106E-1,1.016929564E1
8.632910625E0,5.224041628E0,8.682283185E0,9.390594716E-1,1.017617241E1
8.642831625E0,4.832064171E0,8.863953837E0,2.173380968E0,1.032676651E1
8.652753625E0,4.479835501E0,8.950564549E0,3.053771524E0,1.046456174E1
8.662675625E0,3.336159881E0,8.923456857E0,2.611234363E0,9.878086350E0
8.672596625E0,2.185888893E0,8.610281741E0,1.935809619E0,9.091887637E0
8.682518625E0,1.206440510E0,7.886297625E0,1.356966991E0,8.092623082E0
8.692440625E0,-1.164986383E0,6.106298761E0,-1.589025292E0,6.416313522E0
8.702361625E0,-4.838404599E0,2.523234937E0,-9.432294866E-1,5.537739203E0
8.712283625E0,-7.729692818E0,-2.907178904E0,1.516360774E0,8.396379591E0
8.722205625E0,-1.372415189E1,-1.639548393E1,9.264656655E-1,2.140146203E1
8.732126625E0,-2.346943256E1,-4.059027646E1,-4.996140550E0,4.715237246E1
8.742048625E0,-2.457391313E1,-5.679962364E1,-1.572011415E1,6.385292821E1
8.751970625E0,-1.036125327E1,-4.230078818E1,-6.158140175E0,4.398448523E1
8.761891625E0,-6.660639364E-1,-2.094489487E1,5.839758114E0,2.175396601E1
8.771813625E0,2.241677470E0,-1.226202988E1,6.606798202E0,1.410787997E1
8.781734625E0,3.872003986E0,-7.865535332E0,6.027879413E0,1.063928527E1
8.791656625E0,4.196465982E0,-5.141981218E0,4.838080956E0,8.213240830E0
8.801578625E0,3.850290350E0,-3.528746114E0,3.272619942E0,6.163345375E0
8.811499625E0,3.543138743E0,-2.512076696E0,1.937021163E0,4.755671610E0
8.821421625E0,3.433212551E0,-1.720516893E0,7.554859900E-1,3.913807083E0
8.831343625E0,3.384418706E0,-1.060861505E0,-9.930232787E-1,3.683179651E0
8.841264125E0,3.684464776E0,-5.271487105E-1,-4.533287823E0,5.865480793E0
8.851186125E0,3.386216140E0,-1.861700839E-1,-9.537398129E0,1.012240496E1
8.861108125E0,1.388301927E0,-3.587424678E-1,-1.070105018E1,1.079669177E1
8.871029125E0,-3.292581752E-1,-2.338020873E-1,-8.474923961E0,8.484539499E0
8.880951125E0,-8.704774792E-1,5.181749886E-1,-6.091581320E0,6.175240832E0
8.890873125E0,-1.003338644E0,1.706792309E0,-3.896391553E0,4.370548656E0
8.900794125E0,-1.043869204E0,2.741350114E0,-2.121608990E0,3.620205529E0
8.910716125E0,-9.051076140E-1,3.494586096E0,-5.426561111E-1,3.650455784E0
8.920637125E0,-1.020949873E0,4.536124892E0,3.647101361E-1,4.663880484E0
8.930559125E0,-1.104303979E0,6.075988550E0,4.013663310E-1,6.188555491E0
8.940481125E0,-7.454094833E-1,7.816466668E0,3.010216967E-1,7.857696897E0
8.950402125E0,2.124382617E-1,9.656852651E0,-5.275820257E-2,9.659333133E0
8.960324125E0,5.110700369E-1,1.022134811E1,2.986293633E-2,1.023416052E1
8.970246125E0,2.618894801E-1,1.014037119E1,5.390033555E-1,1.015806274E1
8.980167125E0,3.088559242E-1,1.022828408E1,1.160811471E0,1.029857614E1
8.990089125E0,5.330073282E-1,1.050216064E1,1.692235665E0,1.065096881E1
9.000011125E0,1.126145229E0,1.067965171E1,1.918228211E0,1.090883876E1
9.009932125E0,1.709209109E0,1.062001011E1,2.031147301E0,1.094676070E1
9.019854125E0,2.145963228E0,1.053189023E1,2.346294683E0,1.100140758E1
9.029775125E0,2.473185987E0,1.046086761E1,2.500899158E0,1.103634435E1
9.039697125E0,2.669343408E0,1.040111374E1,2.448471415E0,1.101379015E1
9.049619125E0,2.816215817E0,1.016693275E1,2.167614444E0,1.077015067E1
9.059540125E0,2.874046534E0,9.869903555E0,2.123826546E0,1.049694141E1
9.069462125E0,2.863943715E0,9.591894178E0,2.309541425E0,1.027329495E1
9.079384125E0,2.783899133E0,9.924425333E0,2.938186397E0,1.071808061E1
9.089305125E0,2.393367985E0,1.048284378E1,3.323630759E0,1.125454333E1
9.099227125E0,1.982143249E0,1.008813451E1,2.916187417E0,1.068660370E1
9.109149125E0,1.706073686E0,9.635381091E0,2.407264770E0,1.007701245E1
9.119070125E0,1.404514941E0,8.886916437E0,2.332531215E0,9.294656952E0
9.128992125E0,2.103210433E0,8.268840600E0,2.390909231E0,8.860793753E0
9.138913125E0,2.424833607E0,7.824811229E0,2.488269465E0,8.561481982E0
9.148835125E0,2.211364920E0,6.200427239E0,2.604046381E0,7.079300128E0
9.158757125E0,-5.299176595E-1,-7.125627494E-1,2.683657976E0,2.826761138E0
9.168678125E0,-9.651619978E0,-2.441766851E1,-1.218009958E0,2.628421298E1
9.178600125E0,-2.174208086E1,-6.097131263E1,-1.872201269E1,6.738495977E1
9.188522125E0,-2.751798855E1,-6.744668296E1,-1.297614916E1,7.399104800E1
9.198443125E0,-2.196584913E1,-4.815172266E1,6.637185012E0,5.333984578E1
9.208365125E0,-8.886958537E0,-2.892132498E1,7.982988353E0,3.129135941E1
9.218287125E0,-2.205172426E0,-1.950166522E1,8.026834284E0,2.120395719E1
9.228208125E0,6.200156513E-1,-1.400931124E1,7.224860591E0,1.577478467E1
9.238130125E0,2.064354808E0,-9.508218184E0,6.001827729E0,1.143196002E1
9.248052125E0,2.735296492E0,-5.800953067E0,5.227319577E0,8.273921280E0
9.257973125E0,2.936126130E0,-2.665449747E0,4.552526332E0,6.037462630E0
9.267895125E0,2.798621837E0,7.853629231E-2,3.765424447E0,4.692214126E0
9.277816125E0,2.551715848E0,2.547041876E0,2.602727834E0,4.446669345E0
9.287738125E0,2.452570751E0,4.867142202E0,7.201710733E-1,5.497528798E0
9.297660125E0,2.391102481E0,6.809928135E0,-2.321290820E0,7.581614824E0
9.307581125E0,2.210635772E0,8.245975063E0,-5.897985857E0,1.037637954E1
9.317503125E0,1.374180463E0,9.346813397E0,-9.512986588E0,1.340702079E1
9.327425125E0,1.370343959E-1,1.016088206E1,-1.192980980E1,1.567107732E1
9.337346125E0,-5.636788979E-1,1.041671996E1,-1.092348528E1,1.510457941E1
9.347268125E0,-2.681880277E-1,1.000104023E1,-7.542466142E0,1.252922687E1
9.357190125E0,4.174132103E-1,9.354766195E0,-4.228130409E0,1.027438422E1
9.367111125E0,7.766031363E-1,8.933122889E0,-1.967357102E0,9.180102993E0
9.377033125E0,5.981361012E-1,9.055024472E0,-9.886062920E-1,9.128448794E0
9.386954125E0,2.565356232E-1,9.048510674E0,-5.272680302E-1,9.067489593E0
9.396876125E0,5.577585921E-2,8.708779258E0,-2.359304373E-1,8.712153022E0
9.406798125E0,-2.124882554E-1,8.421406735E0,1.330972463E-3,8.424087157E0
9.416719125E0,-3.100952415E-1,7.985512011E0,3.306096860E-1,7.998366327E0
9.426641125E0,5.993279099E-2,7.869524887E0,4.632341118E-1,7.883374895E0
9.436563125E0,7.713284361E-1,8.200514715E0,4.891383004E-1,8.251220845E0
9.446484125E0,1.503246785E0,8.758169519E0,5.675660538E-1,8.904348120E0
9.456406125E0,1.950997177E0,9.345500112E0,6.731278114E-1,9.570677269E0
9.466328125E0,2.100166958E0,9.710708431E0,8.315617740E-1,9.969957596E0
9.476249125E0,2.077359747E0,9.827506564E0,1.150264263E0,1.011031239E1
9.486171125E0,2.036514314E0,9.763344482E0,1.639868002E0,1.010739596E1
9.496092125E0,1.966972794E0,9.628941552E0,2.134229035E0,1.005685990E1
9.506014125E0,1.885442581E0,9.480838596E0,2.523608282E0,9.990485122E0
9.515936125E0,1.841366415E0,9.380260055E0,2.910989535E0,9.992685778E0
9.525857125E0,1.840269332E0,9.355298291E0,3.346919635E0,1.010495267E1
9.535779125E0,1.945908346E0,9.338249565E0,3.886139629E0,1.030007502E1
9.545701125E0,2.004816851E0,9.280665016E0,4.371471977E0,1.045274131E1
9.555622125E0,1.909364710E0,8.991610833E0,4.219439400E0,1.011426754E1
9.565544125E0,1.554858111E0,8.569468760E0,3.632694991E0,9.436622885E0
9.575465125E0,7.505658504E-1,7.619821297E0,3.891522869E0,8.588886769E0
9.585387125E0,-9.489414123E-1,5.026681727E0,4.762857696E0,6.989480125E0
9.595309125E0,-2.183350909E0,2.827419375E0,2.384411659E0,4.294966877E0
9.605230125E0,-3.823950983E0,-3.044428843E-1,-1.012519299E1,1.082750293E1
9.615152125E0,-6.434625183E0,-1.078130438E1,-4.254104794E1,4.435517653E1
9.625074125E0,-4.322961722E0,-2.197174780E1,-7.349941889E0,2.356835474E1
9.634995125E0,-8.971019279E0,-4.176429445E1,1.588136165E1,4.557360119E1
9.644917125E0,-1.405899503E1,-5.717586624E1,1.039888127E1,5.979023125E1
9.654839125E0,-1.090013618E1,-5.059577929E1,1.596285342E0,5.178121259E1
9.664760125E0,-1.840105171E0,-2.597765653E1,-1.738027404E0,2.610067748E1
9.674682125E0,1.795605667E0,-1.706923052E1,3.507810159E0,1.751820660E1
9.684603125E0,3.534883937E0,-1.411055578E1,5.573465388E0,1.557776316E1
9.694525125E0,4.143805958E0,-1.193644522E1,4.747390641E0,1.349768759E1
9.704447125E0,4.005642099E0,-1.059891803E1,3.133752079E0,1.175596164E1
9.714368125E0,3.371460691E0,-9.243562678E0,1.511285391E0,9.954606055E0
9.724290125E0,2.915521712E0,-7.452186302E0,-1.345431896E-1,8.003339890E0
9.734212125E0,2.698314022E0,-5.403045364E0,-2.143471144E0,6.408452724E0
9.744133125E0,2.481358348E0,-3.306134428E0,-4.742329876E0,6.291053708E0
9.754055125E0,1.564771188E0,-1.504757559E0,-7.659809820E0,7.961500528E0
9.763977125E0,-2.086307741E-1,-5.498183656E-1,-1.023709116E1,1.025396813E1
9.773898125E0,-1.536520804E0,5.196560884E-1,-1.036472535E1,1.049087557E1
9.783820125E0,-1.767571192E0,1.706283601E0,-7.880361532E0,8.254441805E0
9.793741125E0,-1.565081237E0,2.748960266E0,-5.122271424E0,6.020292880E0
9.803663125E0,-1.436106570E0,4.319419479E0,-3.454085941E0,5.714061288E0
9.813585125E0,-1.344358640E0,6.370713362E0,-2.554755523E0,6.994288003E0
9.823506125E0,-1.089115836E0,8.034246799E0,-1.756483701E0,8.295814000E0
9.833428125E0,-6.888867885E-1,9.242015505E0,-9.775071073E-1,9.319063029E0
9.843349625E0,-2.820793310E-1,1.006008307E1,-2.693344474E-1,1.006764030E1
9.853270625E0,4.014625177E-2,1.056384409E1,2.435868180E-1,1.056672836E1
9.863192625E0,3.389456228E-1,1.085912380E1,5.839835735E-1,1.088009608E1
9.873113625E0,5.290935675E-1,1.103475779E1,7.882490357E-1,1.107552058E1
9.883035625E0,7.140923810E-1,1.120488253E1,9.514156616E-1,1.126785304E1
9.892957625E0,9.494738013E-1,1.120022932E1,1.145033344E0,1.129857241E1
9.902878625E0,1.154740307E0,1.104534359E1,1.367573694E0,1.118942796E1
9.912800625E0,1.271420179E0,1.069410602E1,1.497923334E0,1.087309465E1
9.922722625E0,1.293997010E0,1.031097306E1,1.437056011E0,1.049074467E1
9.932643625E0,1.330811226E0,1.022766077E1,1.236930378E0,1.038778610E1
9.942565625E0,1.321647470E0,1.042590827E1,1.138497180E0,1.057083210E1
9.952486625E0,1.264993797E0,1.057097769E1,1.292686503E0,1.072458937E1
9.962408625E0,1.298297637E0,1.061664913E1,1.542801883E0,1.080643573E1
9.972330625E0,1.382290843E0,1.068907976E1,1.843473021E0,1.093460318E1
9.982251625E0,1.463143072E0,1.062919257E1,2.250263229E0,1.096285579E1
9.992173625E0,1.467469865E0,1.042833136E1,2.637595950E0,1.085635644E1
1.000209563E1,1.446308938E0,1.018386395E1,2.936247460E0,1.069693618E1
1.001201663E1,1.401068738E0,1.001650261E1,3.240935927E0,1.062059244E1
1.002193863E1,1.336452473E0,9.794110776E0,3.549871520E0,1.050296620E1
1.003186063E1,1.231232120E0,9.596366129E0,3.804055247E0,1.039600941E1
1.004178163E1,1.106879385E0,9.353127805E0,3.797905438E0,1.015530735E1
1.005170363E1,9.290762280E-1,9.163683865E0,3.601392214E0,9.889707301E0
1.006162462E1,7.590787386E-1,8.965222349E0,3.745249507E0,9.745681411E0
1.007154662E1,6.949528362E-1,8.678873674E0,3.652653877E0,9.441805337E0
1.008146862E1,5.372589849E-1,7.851749936E0,3.586521283E0,8.648801026E0
1.009138963E1,-1.210744207E-1,5.592712668E0,4.243947712E0,7.021693968E0
1.010131163E1,-1.213589609E-1,4.404926237E0,2.871530185E0,5.259637702E0
1.011123363E1,-1.899207804E-1,-2.962094200E-1,1.006069586E0,1.065826410E0
1.012115463E1,-3.100435814E0,-1.813874123E1,-1.856087278E1,2.613680612E1
1.013107663E1,-1.013347733E1,-4.897285885E1,-3.135224174E1,5.902534480E1
1.014099763E1,-1.801251973E1,-6.754998689E1,2.559921830E0,6.995716401E1
1.015091963E1,-1.742470264E1,-6.240649534E1,1.572947905E1,6.667538852E1
1.016084163E1,-6.437636499E0,-3.797304402E1,1.181419164E1,4.028610629E1
1.017076263E1,5.498720869E-1,-2.172183780E1,4.305941062E0,2.215133687E1
1.018068463E1,3.019598057E0,-1.460919463E1,-1.349951063E0,1.497894883E1
1.019060663E1,4.113382895E0,-1.021081026E1,-1.841071862E0,1.116109809E1
1.020052763E1,4.100040718E0,-7.718311213E0,-4.272585328E-1,8.750154954E0
1.021044963E1,3.583768998E0,-6.129255515E0,4.505981326E-2,7.100225615E0
1.022037063E1,3.079884605E0,-4.383448829E0,-2.032104052E-1,5.361119966E0
1.023029263E1,2.538072539E0,-2.758709328E0,-9.025270915E-1,3.855754728E0
1.024021463E1,2.143026756E0,-1.365777429E0,-1.982138278E0,3.222853366E0
1.025013563E1,1.812687723E0,-5.088147658E-1,-3.055732681E0,3.589182562E0
1.026005763E1,1.415503613E0,-2.215445691E-1,-3.840455918E0,4.099004042E0
1.026997963E1,1.012329688E0,1.511809301E-1,-4.264249830E0,4.385372696E0
1.027990062E1,5.697700156E-1,9.601788837E-1,-4.325878898E0,4.467640272E0
1.028982262E1,6.639140613E-2,1.867995951E0,-4.094233848E0,4.500729663E0
1.029974363E1,-3.035718685E-1,2.908545399E0,-3.796363235E0,4.792094117E0
1.030966563E1,-5.931659314E-1,4.768573934E0,-3.355838100E0,5.861125535E0
1.031958763E1,-9.046018298E-1,6.949136891E0,-2.835942276E0,7.559852948E0
1.032950863E1,-1.006354492E0,8.953015117E0,-2.376558702E0,9.317578028E0
1.033943063E1,-9.900809598E-1,1.055495866E1,-2.008318602E0,1.078984505E1
1.034935263E1,-6.673042770E-1,1.154368541E1,-1.831554934E0,1.170711584E1
1.035927363E1,-3.483766700E-1,1.228102866E1,-1.747639203E0,1.240964439E1
1.036919563E1,-1.009840090E-1,1.267367854E1,-1.581287087E0,1.277234491E1
1.037911663E1,1.283019447E-1,1.247562282E1,-1.311594790E0,1.254503516E1
1.038903863E1,1.053507462E-1,1.207888924E1,-1.238989913E0,1.214272458E1
1.039896063E1,-7.028090090E-2,1.149642353E1,-9.565740752E-1,1.153636543E1
1.040888163E1,-1.814613211E-1,1.058766916E1,-4.050062227E-1,1.059696638E1
1.041880363E1,-4.560024217E-3,9.677168217E0,8.576213524E-2,9.677549310E0
1.042872563E1,3.067658369E-1,9.200866894E0,4.304367869E-1,9.216036714E0
1.043864663E1,5.466971949E-1,9.069635494E0,6.402398546E-1,9.108626290E0
1.044856863E1,7.868954784E-1,9.241743025E0,8.400801440E-1,9.313149482E0
1.045848963E1,1.033473147E0,9.641541132E0,1.040885078E0,9.752477834E0
1.046841163E1,1.203378397E0,9.944559635E0,1.381244777E0,1.011188524E1
1.047833363E1,1.323340238E0,1.007572555E1,1.800668917E0,1.032055634E1
1.048825463E1,1.440469470E0,1.006766808E1,2.355753432E0,1.043946680E1
1.049817662E1,1.591698932E0,9.912775340E0,3.018273955E0,1.048363478E1
1.050809862E1,1.773604349E0,9.526886004E0,3.773312341E0,1.039928437E1
1.051801963E1,1.948960300E0,9.038541171E0,5.011073754E0,1.051686897E1
1.052794163E1,2.036469437E0,8.825352858E0,5.956469707E0,1.084036864E1
1.053786263E1,2.103120240E0,8.787695619E0,6.629023468E0,1.120672393E1
1.054778463E1,2.077957625E0,8.782157722E0,6.505554832E0,1.112503689E1
1.055770663E1,2.030635377E0,8.870077626E0,5.637700560E0,1.070445817E1
1.056762763E1,1.817173999E0,8.841980585E0,4.159880831E0,9.939182589E0
1.057754963E1,1.504255722E0,8.410776497E0,2.837541490E0,9.003087707E0
1.058747163E1,3.626042613E-1,4.782394413E0,3.749635795E0,6.087901672E0
1.059739263E1,-3.252336828E-1,1.505117163E0,3.082446270E0,3.445668241E0
1.060731463E1,-5.338465498E-1,-4.490697874E0,-6.142170260E0,7.627425190E0
1.061723563E1,-4.244031620E0,-3.030586847E1,-4.041923371E1,5.069686303E1
1.062715763E1,-1.030092287E1,-5.363222434E1,-1.351817319E1,5.626069237E1
1.063707963E1,-1.755542300E1,-6.798775623E1,1.300421931E1,7.141174689E1
1.064700063E1,-1.118545340E1,-5.561982860E1,6.634552596E0,5.712002266E1
1.065692263E1,4.537512437E-2,-2.869997746E1,2.036306007E-1,2.870073572E1
1.066684463E1,2.078239460E0,-1.781325480E1,1.761546367E0,1.802038211E1
1.067676563E1,2.869550902E0,-1.305984738E1,3.540629411E0,1.383220852E1
1.068668763E1,3.139302841E0,-1.003701230E1,3.702097932E0,1.114909715E1
1.069660863E1,2.986624439E0,-8.187548515E0,2.809981223E0,9.157066708E0
1.070653063E1,2.584683034E0,-6.376890360E0,1.595107566E0,7.063263070E0
1.071645262E1,1.880268087E0,-4.379858054E0,3.267505968E-1,4.777586274E0
1.072637362E1,1.089661089E0,-2.355115793E0,-9.263159037E-1,2.755357116E0
1.073629563E1,2.874384503E-1,-8.145300043E-1,-2.241399727E0,2.402072590E0
1.074621663E1,-2.421951076E-1,7.248945272E-1,-3.938879176E0,4.012343418E0
1.075613863E1,-4.643748305E-1,2.144172810E0,-6.208061364E0,6.584310664E0
1.076606063E1,-5.792841663E-1,3.188154573E0,-8.145424588E0,8.766290062E0
1.077598163E1,-8.985496692E-1,4.270763628E0,-7.849824448E0,8.981456304E0
1.078590363E1,-1.221145381E0,5.150301222E0,-5.815432527E0,7.863590413E0
1.079582563E1,-1.209003345E0,5.663618343E0,-3.981807679E0,7.028019225E0
1.080574663E1,-9.039121507E-1,6.892245821E0,-2.520881433E0,7.394251337E0
1.081566863E1,-5.742853817E-1,8.326764287E0,-1.457179935E0,8.472790600E0
1.082558963E1,-1.790697368E-1,9.509078309E0,-5.502335179E-1,9.526667475E0
1.083551163E1,2.594624470E-1,1.009650421E1,1.964758015E-1,1.010174840E1
1.084543729E1,7.689596560E-1,1.019646353E1,7.447048938E-1,1.025249984E1
1.085535829E1,1.077335231E0,1.040290767E1,9.573353096E-1,1.050226785E1
1.086528029E1,1.231897387E0,1.046699783E1,1.056538074E0,1.059206719E1
1.087520229E1,1.263962202E0,1.059433849E1,1.176057574E0,1.073409148E1
1.088512329E1,1.433801451E0,1.076401416E1,1.372749503E0,1.094551181E1
1.089504529E1,1.597522905E0,1.040780646E1,1.458296753E0,1.063019963E1
1.090496629E1,1.435729571E0,9.639029168E0,1.374708467E0,9.841850745E0
1.091488829E1,1.291265337E0,9.329536044E0,1.372746141E0,9.517985130E0
1.092481029E1,1.275586467E0,9.350352132E0,1.578057085E0,9.567991952E0
1.093473129E1,1.404642995E0,9.559367872E0,1.925159355E0,9.851942681E0
1.094465329E1,1.579358237E0,9.933350523E0,2.240213181E0,1.030458054E1
1.095457429E1,1.959504584E0,1.066109030E1,2.257677645E0,1.107229033E1
1.096449629E1,2.391070468E0,1.140082623E1,1.628227511E0,1.176210787E1
1.097441829E1,2.851255549E0,1.158811021E1,8.660286252E-1,1.196511438E1
1.098433929E1,3.227222745E0,1.127262954E1,2.869088387E-1,1.172900081E1
1.099426129E1,3.387935221E0,1.079051491E1,-4.685490847E-2,1.130997403E1
1.100418329E1,3.388590694E0,1.023535687E1,-6.656829903E-1,1.080223176E1
1.101410429E1,3.247215545E0,9.533330221E0,-1.466911895E0,1.017745668E1
1.102402629E1,2.601654870E0,8.728511272E0,-1.688555135E0,9.263192513E0
1.103394729E1,1.734959808E0,8.373910972E0,-1.506674130E0,8.683463447E0
1.104386929E1,1.071243090E0,8.600111679E0,-6.926785617E-1,8.694209926E0
1.105379129E1,7.085275859E-1,8.909062182E0,5.137400217E-1,8.951945549E0
1.106371229E1,-1.095771137E-1,8.188211004E0,4.391843677E-1,8.200712743E0
1.107363429E1,-1.678039503E0,5.699433709E0,-1.556840025E0,6.141914363E0
1.108355529E1,-3.157876229E0,2.022862381E0,-5.839579189E0,6.940089307E0
1.109347729E1,-2.831992774E0,-1.557581306E-2,-8.770618826E0,9.216516710E0
1.110339929E1,-2.446869131E0,-6.143216327E0,-1.141908358E1,1.319551989E1
1.111332029E1,-7.256874681E0,-2.591377921E1,-7.645971215E0,2.797582990E1
1.112324229E1,-1.656347444E1,-5.327116111E1,1.375842534E0,5.580374749E1
1.113316429E1,-2.028686091E1,-6.714255758E1,8.652566466E0,7.067210674E1
1.114308529E1,-1.046716272E1,-5.499838184E1,1.234763195E1,5.733103448E1
1.115300729E1,2.530218852E-1,-2.763100119E1,9.920996525E0,2.935919650E1
1.116292829E1,2.158308016E0,-1.705318343E1,6.124733863E0,1.824778681E1
1.117285029E1,3.483549476E0,-1.223765869E1,2.509910302E0,1.296900370E1
1.118277229E1,4.055792791E0,-1.058970165E1,2.040492614E-1,1.134164328E1
1.119269329E1,4.122970867E0,-1.013233595E1,-1.465805748E0,1.103683410E1
1.120261529E1,3.606586003E0,-9.261549298E0,-2.224264462E0,1.018484710E1
1.121253629E1,2.512510559E0,-7.569954488E0,-3.156896528E0,8.578048493E0
1.122245829E1,1.546955453E0,-5.712087083E0,-4.671465715E0,7.539469607E0
1.123238029E1,7.367450792E-1,-3.705577610E0,-6.068010024E0,7.148065779E0
1.124230129E1,4.599894919E-2,-1.628823196E0,-6.599773357E0,6.797954786E0
1.125222329E1,-4.709667622E-1,1.190586662E-1,-5.969708973E0,5.989441533E0
1.126214529E1,-6.126705983E-1,1.531672293E0,-4.658546292E0,4.942007571E0
1.127206629E1,-6.698701814E-1,3.154633656E0,-3.525331925E0,4.777907988E0
1.128198829E1,-6.567692024E-1,5.125243564E0,-2.445197997E0,5.716507729E0
1.129190929E1,-6.323390237E-1,7.088382484E0,-1.701779491E0,7.317176526E0
1.130183129E1,-5.051853260E-1,8.984354439E0,-1.463155789E0,9.116724289E0
1.131175329E1,-3.717688948E-1,1.074323784E1,-1.223509995E0,1.081907335E1
1.132167429E1,-4.875050269E-2,1.203375342E1,-1.355471127E0,1.210995045E1
1.133159629E1,2.610637070E-1,1.260971351E1,-1.286465796E0,1.267785563E1
1.134151729E1,3.682580803E-1,1.288355616E1,-8.597137785E-1,1.291745878E1
1.135143929E1,3.520075717E-1,1.282227500E1,-3.052305774E-1,1.283073698E1
1.136136129E1,3.022224773E-1,1.253761617E1,-3.160295807E-2,1.254129804E1
1.137128229E1,3.415358663E-3,1.210651032E1,3.034354091E-1,1.211031283E1
1.138120429E1,-4.737751798E-1,1.157175906E1,6.968419254E-1,1.160239886E1
1.139112529E1,-6.481238016E-1,1.091436830E1,8.880971865E-1,1.096960421E1
1.140104729E1,-2.588666157E-1,1.066055119E1,7.418290870E-1,1.068946556E1
1.141096929E1,4.554634546E-1,1.090446545E1,1.844129956E-1,1.091553123E1
1.142089029E1,1.074626143E0,1.132964691E1,-2.612139805E-1,1.138349477E1
1.143081229E1,1.530005252E0,1.145732905E1,-1.838668656E-1,1.156049791E1
1.144073429E1,1.917180537E0,1.125817756E1,4.319735813E-1,1.142841828E1
1.145065529E1,2.175980494E0,1.093943648E1,1.261028069E0,1.122480973E1
1.146057729E1,2.229961404E0,1.042887398E1,2.020800068E0,1.085438959E1
1.147049829E1,2.201815832E0,9.995673655E0,2.597453938E0,1.055974676E1
1.148042029E1,2.210937927E0,9.587803466E0,2.982172076E0,1.028141878E1
1.149034229E1,2.417935354E0,9.066130673E0,3.553245948E0,1.003327930E1
1.150026329E1,2.673580885E0,8.578667015E0,4.490079823E0,1.004501764E1
1.151018529E1,2.750302494E0,8.274563270E0,5.234559599E0,1.017021019E1
1.152010629E1,2.707945556E0,8.074665678E0,5.334501379E0,1.004938306E1
1.153002829E1,2.661858679E0,7.966126737E0,4.998560128E0,9.773958777E0
1.153995029E1,2.592405159E0,7.884061065E0,4.390754048E0,9.389233435E0
1.154987129E1,2.548005497E0,7.687699869E0,3.958854142E0,9.014742781E0
1.155979329E1,2.367835095E0,7.382436621E0,3.636903816E0,8.563532149E0
1.156971429E1,2.034714980E0,6.870742686E0,3.310925052E0,7.893630014E0
1.157963629E1,1.643923923E0,5.659663872E0,3.288647161E0,6.749035572E0
1.158955829E1,-2.170065158E0,-7.409363633E-1,1.272854063E-1,2.296599891E0
1.159947929E1,-1.110244750E1,-1.797439588E1,-4.170670172E1,4.675245679E1
1.160940129E1,-7.062564688E0,-2.902791271E1,-3.623042641E1,4.695895371E1
1.161932329E1,-7.589740881E0,-3.485919587E1,1.723399804E1,3.962042897E1
1.162924429E1,-1.605666117E1,-5.113538841E1,1.803067884E1,5.654864893E1
1.163916629E1,-1.635057848E1,-5.376989586E1,1.014765332E1,5.710970133E1
1.164908729E1,-5.889519088E0,-3.163546449E1,-7.960285953E0,3.314898492E1
1.165900929E1,-1.813406053E0,-1.717334488E1,-4.087710110E0,1.774603025E1
1.166893129E1,1.415204528E-1,-1.187188962E1,6.633950332E0,1.360040765E1
1.167885229E1,1.179668303E0,-1.023106619E1,5.082780499E0,1.148481564E1
1.168877429E1,1.131605506E0,-1.109109221E1,2.158091669E0,1.135562490E1
1.169869529E1,9.461533137E-1,-1.080301392E1,-1.526499846E0,1.095127927E1
1.170861729E1,7.339132726E-1,-8.813487103E0,-3.838270229E0,9.640980342E0
1.171853929E1,1.973946914E-1,-7.279289982E0,-3.980717758E0,8.298984346E0
1.172846029E1,-1.760044071E-1,-6.538550670E0,-3.465719562E0,7.402353308E0
1.173838229E1,-4.264241351E-1,-6.682210327E0,-3.704004124E0,7.652020579E0
1.174830329E1,-6.174443382E-1,-6.421257863E0,-3.975834163E0,7.577667672E0
1.175822529E1,-7.050629644E-1,-4.967286295E0,-3.939213052E0,6.378749595E0
1.176814729E1,-5.400676949E-1,-3.039953384E0,-3.833087842E0,4.921945967E0
1.177806829E1,-2.539252800E-1,-5.784872639E-1,-4.022977924E0,4.072281540E0
1.178799029E1,5.253708646E-2,2.386845124E0,-4.605575196E0,5.187592185E0
1.179791129E1,3.383676986E-1,5.646550321E0,-5.167640555E0,7.661757770E0
1.180783329E1,5.798556586E-1,8.690875669E0,-5.329330101E0,1.021123459E1
1.181775529E1,8.512554887E-1,1.111001847E1,-5.474244570E0,1.241468888E1
1.182767629E1,1.174910862E0,1.257079094E1,-5.105239069E0,1.361868813E1
1.183759829E1,1.582640571E0,1.302795432E1,-3.887124885E0,1.368729648E1
1.184751538E1,2.061187372E0,1.274882696E1,-2.511739896E0,1.315636422E1
1.185743738E1,2.392265785E0,1.239144514E1,-1.213291401E0,1.267844329E1
1.186735937E1,2.578738755E0,1.200957050E1,-4.306860244E-1,1.229085707E1
1.187728037E1,2.678857412E0,1.168670362E1,-1.179067647E-1,1.199038034E1
1.188720238E1,2.730114105E0,1.139710273E1,8.041090965E-3,1.171953661E1
1.189712438E1,2.712803423E0,1.126745125E1,5.381663997E-2,1.158954944E1
1.190704538E1,2.597246069E0,1.085199488E1,2.361726947E-1,1.116097028E1
1.191696738E1,2.362392945E0,1.002419286E1,2.509579642E-1,1.030186017E1
1.192688838E1,2.141165880E0,9.550139211E0,-6.299907088E-2,9.787426585E0
1.193681038E1,2.145352486E0,9.439249105E0,-5.258552333E-1,9.694250084E0
1.194673238E1,2.422252061E0,9.521498380E0,-9.848651703E-1,9.874016196E0
1.195665338E1,2.875664459E0,9.812238314E0,-1.266108130E0,1.030303337E1
1.196657538E1,3.138998786E0,1.014577051E1,-9.793571663E-1,1.066532293E1
1.197649638E1,2.970719135E0,1.013438247E1,-2.342720573E-1,1.056341629E1
1.198641838E1,2.734569683E0,9.942416046E0,6.776256359E-1,1.033386107E1
1.199634038E1,2.632138744E0,9.826641176E0,1.584757848E0,1.029575100E1
1.200626138E1,2.654032474E0,9.761847010E0,2.190340232E0,1.035061040E1
1.201618338E1,2.677948170E0,9.611559534E0,2.597100474E0,1.031011222E1
1.202610438E1,2.556322284E0,9.454398656E0,2.788186312E0,1.018304574E1
1.203602638E1,2.392870972E0,9.420697644E0,3.031473752E0,1.018161130E1
1.204594838E1,2.348662075E0,9.433371484E0,3.732373645E0,1.041322832E1
1.205586938E1,2.235711702E0,9.394923702E0,4.083750376E0,1.048522843E1
1.206579138E1,1.991249410E0,9.121451181E0,4.070783298E0,1.018514715E1
1.207571237E1,1.467452323E0,8.768235501E0,3.708108577E0,9.632519886E0
1.208563437E1,9.541144440E-1,8.644300257E0,2.930226290E0,9.177172081E0
1.209555637E1,4.342434704E-2,7.414489303E0,2.942769152E0,7.977244360E0
1.210547738E1,-3.589540493E0,1.814260039E0,3.577731164E0,5.382982511E0
1.211539938E1,-6.252869747E0,-4.007002746E0,-8.813830919E0,1.152553975E1
1.212532038E1,-9.068380097E0,-1.976653824E1,-3.164289046E1,3.839562564E1
1.213524238E1,-1.822713476E1,-5.002481037E1,-1.375408027E1,5.498986105E1
1.214516438E1,-2.772447011E1,-6.960516157E1,4.759128342E0,7.507445679E1
1.215508538E1,-1.868719836E1,-6.048604518E1,6.200879813E0,6.360993598E1
1.216500738E1,-5.263692182E0,-3.270911854E1,5.159072045E0,3.352922479E1
1.217492838E1,-1.467651129E-2,-1.925767845E1,5.995258967E0,2.016932138E1
1.218485038E1,2.738733485E0,-1.342099714E1,5.789247526E0,1.487075023E1
1.219477238E1,4.136137919E0,-9.859944577E0,5.111497929E0,1.185131027E1
1.220469338E1,4.550427766E0,-8.265594810E0,3.661508900E0,1.012092376E1
1.221461538E1,4.552419328E0,-7.284501021E0,1.078874438E0,8.657508124E0
1.222453638E1,4.791951102E0,-6.062310158E0,-3.464849496E0,8.468741456E0
1.223445838E1,5.438083634E0,-5.089698924E0,-9.785775570E0,1.229793447E1
1.224438038E1,5.415991684E0,-4.291486160E0,-1.184022344E1,1.370914697E1
1.225430138E1,4.049407924E0,-3.018753719E0,-8.335960203E0,9.746733354E0
1.226422338E1,2.473479810E0,-1.585635661E0,-5.035990494E0,5.830398192E0
1.227414437E1,1.182767619E0,-4.149260241E-1,-3.547449018E0,3.762379219E0
1.228406637E1,-1.543211773E-2,1.548922749E0,-3.152438611E0,3.512444879E0
1.229398837E1,-1.161938595E0,3.906506651E0,-3.215734136E0,5.191516305E0
1.230390938E1,-2.125371381E0,6.160748034E0,-3.338923860E0,7.322597379E0
1.231383138E1,-2.760352980E0,8.099904599E0,-3.075710862E0,9.093294255E0
1.232375238E1,-3.087726306E0,9.667095804E0,-2.125388630E0,1.036841704E1
1.233367438E1,-2.987900886E0,1.059459460E1,-1.346280473E0,1.108988086E1
1.234359638E1,-2.898456613E0,1.121593611E1,-8.516738570E-1,1.161566278E1
1.235351738E1,-2.765161731E0,1.154674818E1,-4.988476020E-1,1.188370152E1
1.236343938E1,-2.709816080E0,1.180550034E1,-2.524412566E-1,1.211514209E1
1.237336138E1,-2.727244291E0,1.185319490E1,-4.568780422E-2,1.216298394E1
1.238328238E1,-2.487120194E0,1.178256288E1,1.600476845E-1,1.204326244E1
1.239320438E1,-1.965645914E0,1.159056604E1,4.926361779E-1,1.176637903E1
1.240312538E1,-1.422410052E0,1.141413918E1,8.722386606E-1,1.153545074E1
1.241304738E1,-9.176384164E-1,1.126311612E1,1.218437974E0,1.136593314E1
1.242296838E1,-4.561457516E-1,1.117149376E1,1.543687005E0,1.128686455E1
1.243289038E1,-2.582269304E-2,1.114242374E1,1.793383287E0,1.128585386E1
1.244281238E1,3.787534670E-1,1.113568541E1,2.016309553E0,1.132309357E1
1.245273338E1,7.670924938E-1,1.102638692E1,2.225976673E0,1.127495505E1
1.246265538E1,1.085213477E0,1.096953093E1,2.382249358E0,1.127756220E1
1.247257638E1,1.312539116E0,1.092043303E1,2.627207787E0,1.130844097E1
1.248249838E1,1.532360656E0,1.066514827E1,2.712225133E0,1.111079124E1
1.249242037E1,1.617133589E0,1.026416026E1,2.607824267E0,1.071302265E1
1.250234137E1,1.599118756E0,9.853231974E0,2.457617483E0,1.028023564E1
1.251226338E1,1.606276333E0,9.532491730E0,2.447206808E0,9.971827485E0
1.252218438E1,1.636772047E0,9.358058177E0,2.602417932E0,9.850119526E0
1.253210638E1,1.525736053E0,9.304504699E0,2.472620269E0,9.747590943E0
1.254202838E1,1.281638481E0,9.218490402E0,2.098708516E0,9.540845871E0
1.255194938E1,9.867294820E-1,9.192005439E0,1.737255571E0,9.406628300E0
1.256187138E1,7.464945804E-1,9.132669064E0,1.420558970E0,9.272587890E0
1.257179238E1,4.637694244E-1,8.497777804E0,1.007510340E-1,8.511019942E0
1.258171438E1,5.987342714E-1,6.944577232E0,-3.941106673E0,8.007368948E0
1.259163638E1,1.019004651E0,3.259644386E0,-1.570011667E1,1.606727468E1
1.260155738E1,2.721732706E-2,1.302184866E0,-1.151058432E1,1.158403978E1
1.261147938E1,-7.213008285E-2,1.528846918E0,1.487212404E0,2.134098494E0
1.262140038E1,1.950490808E-1,-2.271994114E0,7.102630395E-1,2.388404275E0
1.263132238E1,-3.678524882E0,-1.442881388E1,-4.192645411E0,1.546934035E1
1.264124438E1,-1.890561409E1,-4.914763447E1,-1.277881031E1,5.418680846E1
1.265116538E1,-3.147792647E1,-7.003929628E1,-1.171484978E0,7.679671384E1
1.266108738E1,-2.620222002E1,-6.475833903E1,1.322158838E1,7.109858794E1
1.267100838E1,-1.074533465E1,-4.098372391E1,1.211152723E1,4.406605194E1
1.268093038E1,-4.095906152E0,-2.315753506E1,8.816349900E0,2.511525240E1
1.269085238E1,-1.504108372E0,-1.504370591E1,6.457118837E0,1.643988482E1
1.270077337E1,-8.612904802E-2,-1.017536678E1,4.644414157E0,1.118553039E1
1.271069537E1,7.716741528E-1,-6.356550236E0,3.531866773E0,7.312680412E0
1.272061638E1,1.255002075E0,-3.003437523E0,2.437099603E0,4.066340079E0
1.273053838E1,1.502955886E0,9.261229455E-2,1.181643931E0,1.914088768E0
1.274046038E1,1.444563398E0,2.470480773E0,-1.434586294E0,3.201261703E0
1.275038138E1,1.650429243E0,3.970438353E0,-8.339742767E0,9.382942333E0
1.276030338E1,1.475928886E0,5.242010706E0,-2.005596840E1,2.078217772E1
1.277022438E1,4.245078564E-2,4.887083547E0,-1.741337893E1,1.808621445E1
1.278014638E1,1.020793752E-1,4.116350357E0,-9.582458526E0,1.042968225E1
1.279006838E1,5.129655580E-1,4.215387572E0,-6.091759660E0,7.425776848E0
1.279998938E1,6.732463637E-1,5.344935735E0,-3.392605392E0,6.366425215E0
1.280991138E1,6.919410816E-1,6.735212413E0,-2.362142977E0,7.170884754E0
1.281983238E1,8.754974601E-1,7.805401981E0,-1.950409532E0,8.092891525E0
1.282975438E1,1.172387057E0,8.593509588E0,-1.661738343E0,8.830870442E0
1.283967638E1,1.511973316E0,9.348097445E0,-1.206274157E0,9.546103210E0
1.284959775E1,1.762490985E0,9.954433243E0,-7.786234224E-1,1.013919968E1
1.285951975E1,1.913572658E0,1.028493541E1,-4.855323225E-1,1.047269776E1
1.286944075E1,2.003059616E0,1.046871808E1,-2.626136577E-1,1.066186062E1
1.287936275E1,1.917700500E0,1.055929730E1,-4.061943769E-2,1.073210066E1
1.288928475E1,1.633985849E0,1.040197679E1,1.722355843E-1,1.053093994E1
1.289920575E1,1.346960212E0,9.907984132E0,3.893929875E-1,1.000670167E1
1.290912775E1,1.333958636E0,9.715222481E0,4.035830835E-1,9.814676399E0
1.291904875E1,1.637750871E0,9.784440651E0,1.653580892E-1,9.921937818E0
1.292897075E1,2.143767306E0,9.998624160E0,-4.678927347E-2,1.022596756E1
1.293889175E1,2.629092637E0,1.021822453E1,-2.717575336E-1,1.055452949E1
1.294881375E1,3.063160691E0,1.028364084E1,-7.916790124E-1,1.075932052E1
1.295873575E1,3.576594757E0,1.030600410E1,-1.625194999E0,1.102937031E1
1.296865675E1,3.948382655E0,1.017515394E1,-1.893803076E0,1.107745338E1
1.297857875E1,3.940440967E0,9.798917187E0,-1.234960012E0,1.063348387E1
1.298849975E1,3.661620582E0,9.287225592E0,-1.227168305E-1,9.983740977E0
1.299842175E1,3.227768290E0,8.916788692E0,1.053394757E0,9.541344205E0
1.300834375E1,2.766247266E0,8.576544476E0,2.009175804E0,9.232877477E0
1.301826475E1,2.410126982E0,8.435627748E0,2.651313518E0,9.165041787E0
1.302818675E1,2.099598316E0,8.364204594E0,3.272691278E0,9.223813733E0
1.303810775E1,1.905287446E0,8.368418682E0,4.162419984E0,9.538673473E0
1.304802975E1,1.662375689E0,8.383440179E0,4.949441178E0,9.876362192E0
1.305795175E1,1.166880881E0,8.265856181E0,5.314520273E0,9.895964588E0
1.306787275E1,9.316226904E-1,8.147152441E0,6.041097629E0,1.018522824E1
1.307779475E1,6.271279120E-1,7.824236448E0,6.807768173E0,1.039026818E1
1.308771575E1,1.443572295E-1,7.117449578E0,5.655170871E0,9.091748186E0
1.309763775E1,-7.913881865E-1,5.641809399E0,5.395932811E0,7.846808233E0
1.310755975E1,-2.720243128E0,1.519936346E0,6.958494190E0,7.624340664E0
1.311748075E1,-3.673480782E0,-3.546474288E0,2.177066614E0,5.550816153E0
1.312740275E1,-7.176395359E0,-2.514668532E1,-4.618519645E1,5.307474733E1
1.313732375E1,-1.254078186E1,-5.393190116E1,-4.596363843E1,7.196233202E1
1.314724575E1,-2.138920607E1,-6.739754296E1,1.106472711E1,7.157063029E1
1.315716775E1,-2.004560713E1,-5.743067854E1,1.337109934E1,6.228077954E1
1.316708875E1,-9.101101116E0,-3.081112637E1,9.561060641E0,3.351968720E1
1.317701075E1,-3.321222876E0,-1.632363451E1,7.809052398E0,1.839763204E1
1.318693175E1,-4.519861154E-1,-9.956683252E0,6.617594501E0,1.196379496E1
1.319685375E1,7.588338134E-1,-7.143179081E0,5.284146327E0,8.917569094E0
1.320677575E1,8.225222710E-1,-7.365769132E0,4.491847436E0,8.666475131E0
1.321669675E1,4.653548969E-1,-8.970958468E0,3.616342667E0,9.683624595E0
1.322661875E1,2.951573597E-1,-9.889781749E0,2.486851223E0,1.020192775E1
1.323653975E1,7.855826323E-1,-9.455648206E0,5.122698124E-1,9.502044172E0
1.324646175E1,1.991167695E0,-8.362133510E0,-3.415621787E0,9.249675552E0
1.325638375E1,3.591916509E0,-6.660407814E0,-9.154986717E0,1.187757038E1
1.326630475E1,3.593589397E0,-4.024085387E0,-1.143175801E1,1.264089550E1
1.327622675E1,1.538361800E0,-1.482598951E0,-8.902134985E0,9.154925667E0
1.328614775E1,-5.626293227E-2,2.401299441E-1,-6.326810127E0,6.331615457E0
1.329606975E1,-1.015806077E0,2.272985802E0,-5.139123099E0,5.710421409E0
1.330599075E1,-1.929871187E0,4.666560486E0,-4.540665255E0,6.791084636E0
1.331591275E1,-2.618365628E0,7.172961874E0,-3.982631552E0,8.612117898E0
1.332583475E1,-3.008698263E0,9.504871822E0,-3.368489136E0,1.052338219E1
1.333575575E1,-3.043964574E0,1.131696079E1,-2.771013624E0,1.204233525E1
1.334567775E1,-2.848431344E0,1.259455870E1,-2.371749952E0,1.312865826E1
1.335559875E1,-2.577976862E0,1.333110673E1,-2.086051487E0,1.373739357E1
1.336552075E1,-2.329358223E0,1.348278116E1,-1.571588895E0,1.377247942E1
1.337544275E1,-2.167795854E0,1.345728613E1,-9.828228110E-1,1.366615636E1
1.338536375E1,-1.963277207E0,1.313413508E1,-5.208676314E-1,1.329026955E1
1.339528575E1,-1.840341545E0,1.263606691E1,1.389532328E-2,1.276938672E1
1.340520675E1,-1.717267596E0,1.202921831E1,4.557565463E-1,1.215972102E1
1.341512875E1,-1.658466679E0,1.145073807E1,8.642419354E-1,1.160244923E1
1.342505075E1,-1.416235684E0,1.104944366E1,1.050702553E0,1.118927632E1
1.343497175E1,-6.652092196E-1,1.092628960E1,9.905453018E-1,1.099124596E1
1.344489375E1,4.160874273E-1,1.097145817E1,7.785908242E-1,1.100691723E1
1.345481475E1,1.512590636E0,1.109219382E1,4.575003321E-1,1.120419568E1
1.346473675E1,2.613283812E0,1.119404764E1,1.428604884E-1,1.149592815E1
1.347465775E1,3.503316574E0,1.112232569E1,1.491390824E-2,1.166102818E1
1.348457975E1,3.996238607E0,1.086938567E1,7.760892391E-2,1.158099698E1
1.349450175E1,4.295738255E0,1.035986982E1,3.183082406E-1,1.121969652E1
1.350442275E1,4.395980289E0,9.640991494E0,6.659500618E-1,1.061681916E1
1.351434475E1,4.536190089E0,8.958725508E0,1.181160951E0,1.011093094E1
1.352426575E1,4.632467418E0,8.457040837E0,1.631752944E0,9.779770537E0
1.353418775E1,4.612540399E0,8.016614521E0,2.049083343E0,9.473139915E0
1.354410975E1,4.534845814E0,7.660112706E0,2.584747353E0,9.269469893E0
1.355403075E1,4.574579983E0,7.313672195E0,3.036782147E0,9.145415726E0
1.356395275E1,4.424074114E0,7.074140421E0,3.159719271E0,8.921867536E0
1.357387375E1,4.254419491E0,6.953224095E0,3.164507264E0,8.744227624E0
1.358379575E1,4.094968843E0,6.777400074E0,3.135269139E0,8.516562344E0
1.359371775E1,3.818042371E0,6.539440032E0,3.257518923E0,8.243370246E0
1.360363875E1,3.470599355E0,5.729235798E0,3.447355796E0,7.533489543E0
1.361356075E1,2.301297728E0,3.534333714E0,4.015577688E0,5.823431136E0
1.362348175E1,-2.305204837E0,-4.885911765E0,5.317003001E0,7.580014777E0
1.363340375E1,-1.513141063E1,-2.745497194E1,-4.811720070E1,5.742821672E1
1.364332475E1,-2.293047832E1,-5.737730983E1,-4.776288750E1,7.809773327E1
1.365324675E1,-2.793647611E1,-6.727989698E1,2.246192222E1,7.623364864E1
1.366316875E1,-2.746146001E1,-5.281201435E1,2.184570288E1,6.340721867E1
1.367308975E1,-1.155346663E1,-2.869258191E1,1.550128094E1,3.459821611E1
1.368301175E1,-3.029380741E0,-1.690352628E1,1.132744017E1,2.057224463E1
1.369293275E1,1.126808158E-1,-1.125560011E1,8.212696220E0,1.393375793E1
1.370285475E1,1.283998564E0,-8.563878822E0,6.224696692E0,1.066468573E1
1.371277675E1,2.000519878E0,-7.994245412E0,5.071702949E0,9.676373820E0
1.372269775E1,1.883589891E0,-8.099763681E0,3.790244708E0,9.138929780E0
1.373261975E1,1.367329280E0,-7.655605672E0,2.182010143E0,8.077069755E0
1.374254075E1,1.105778062E0,-6.189885879E0,-1.226413722E0,6.406365813E0
1.375246275E1,1.734008174E0,-4.098249131E0,-1.246885058E1,1.323913385E1
1.376238475E1,6.351511690E-1,-1.555621904E0,-2.036970426E1,2.043889009E1
1.377230575E1,-1.272223441E0,-1.567767155E-1,-1.083754758E1,1.091309163E1
1.378222775E1,-1.775576469E0,4.013575602E-1,-4.792131196E0,5.126234592E0
1.379214875E1,-2.100210081E0,1.304660577E0,-2.927519029E0,3.831891083E0
1.380207075E1,-2.299349435E0,2.766333513E0,-2.162931263E0,4.197365909E0
1.381199175E1,-2.358278698E0,4.581891634E0,-1.568827840E0,5.386690093E0
1.382191375E1,-2.348764401E0,6.485781888E0,-1.236613605E0,7.007943644E0
1.383183575E1,-2.148427098E0,8.395922815E0,-1.094553747E0,8.735290884E0
1.384175688E1,-1.816531098E0,9.962605312E0,-1.087545274E0,1.018508932E1
1.385167888E1,-1.385010822E0,1.118711401E1,-1.265861378E0,1.134337604E1
1.386159988E1,-9.334321113E-1,1.190773422E1,-1.627994646E0,1.205470018E1
1.387152188E1,-5.684360464E-1,1.230362464E1,-2.491861117E0,1.256629104E1
1.388144388E1,-5.008660609E-1,1.273670217E1,-3.708422281E0,1.327504595E1
1.389136488E1,-6.218752120E-1,1.323328632E1,-5.513840160E0,1.434953061E1
1.390128688E1,-7.078664120E-1,1.350431412E1,-7.393524696E0,1.541206612E1
1.391120788E1,-5.780586630E-1,1.288439115E1,-6.758825809E0,1.456102377E1
1.392112988E1,2.381749275E-1,1.127818439E1,-3.767203170E0,1.189310684E1
1.393105087E1,1.389708621E0,1.020533142E1,-1.104164815E0,1.035853558E1
1.394097287E1,2.371807255E0,9.675317574E0,4.486018932E-1,9.971884649E0
1.395089488E1,2.803598695E0,9.440519121E0,1.322092881E0,9.936372401E0
1.396081588E1,2.819234150E0,9.454685170E0,1.880807054E0,1.004373377E1
1.397073788E1,2.686834476E0,9.366921387E0,2.339964341E0,1.002166298E1
1.398065888E1,2.572781904E0,9.290622824E0,2.912234115E0,1.007055047E1
1.399058088E1,2.694634662E0,9.237438304E0,3.535659570E0,1.025144921E1
1.400050288E1,2.943631032E0,9.132318231E0,3.729892672E0,1.029447907E1
1.401042388E1,3.046270424E0,8.964065770E0,3.702043261E0,1.016559703E1
1.402034588E1,2.933109552E0,8.712335535E0,3.568032387E0,9.860972428E0
1.403026688E1,2.782882595E0,8.376932228E0,3.930102797E0,9.662460199E0
1.404018888E1,2.684635631E0,7.942678818E0,4.956167815E0,9.739456590E0
1.405010988E1,2.777918016E0,7.521064163E0,6.082694721E0,1.006391622E1
1.406003188E1,2.931814101E0,7.254656832E0,7.234571646E0,1.065666958E1
1.406995388E1,3.308725037E0,7.056955454E0,8.076802250E0,1.122421562E1
1.407987488E1,3.745108004E0,7.160758735E0,8.127434460E0,1.146112955E1
1.408979688E1,3.489382951E0,7.474818535E0,7.397900752E0,1.108050726E1
1.409971788E1,2.420913633E0,7.528028197E0,5.664848013E0,9.727411494E0
1.410963988E1,1.326652540E0,6.843546116E0,4.140409895E0,8.107843394E0
1.411956188E1,1.101882647E0,6.172493920E0,3.773691241E0,7.318098943E0
1.412948287E1,8.047248083E-1,4.710000620E0,3.172785752E0,5.735700244E0
1.413940487E1,-2.580080398E0,-5.064155948E0,-5.103560919E0,7.638640218E0
1.414932588E1,-1.997676435E1,-6.123068108E1,-6.878528370E1,9.423206818E1
1.415924788E1,-2.885417088E1,-6.959640010E1,-4.614419987E0,7.548188496E1
1.416916988E1,-2.305595490E1,-5.494358173E1,2.667155263E1,6.528204921E1
1.417909088E1,-9.226782339E0,-3.154631083E1,1.720458889E1,3.709853256E1
1.418901288E1,-4.173295221E0,-1.586345864E1,1.468227547E1,2.201442541E1
1.419893388E1,-1.322040841E0,-9.316680356E0,1.042143282E1,1.404117469E1
1.420885588E1,-2.078033200E-1,-6.368891954E0,5.742466292E0,8.577988462E0
1.421877688E1,-2.529888484E-1,-4.659281287E0,2.498118807E0,5.292778386E0
1.422869888E1,-1.888427877E0,-4.472221257E0,-1.800110801E0,5.177578750E0
1.423862088E1,-3.846013112E0,-7.291994228E0,-4.099605685E0,9.207158272E0
1.424854188E1,-3.070243131E0,-1.257804616E1,-6.021091965E0,1.427890705E1
1.425846388E1,-7.301371408E-1,-1.688304465E1,-1.010742681E1,1.969087031E1
1.426838488E1,2.841041048E0,-1.713284238E1,-9.607975191E0,1.984739251E1
1.427830688E1,4.489918732E0,-1.287011926E1,-5.142864733E0,1.456874729E1
1.428822888E1,3.542811884E0,-8.567098884E0,-3.087946161E0,9.771494810E0
1.429814988E1,2.103814451E0,-5.674148009E0,-3.234877335E0,6.861954696E0
1.430807188E1,1.203504331E0,-2.077347322E0,-3.995305976E0,4.661144110E0
1.431799288E1,7.301973671E-1,1.578979776E0,-4.777572214E0,5.084443095E0
1.432791488E1,4.963660437E-1,4.519069149E0,-4.931974960E0,6.707662948E0
1.433783587E1,3.195142289E-1,7.079154993E0,-4.656790373E0,8.479517754E0
1.434775787E1,3.019728743E-1,9.354920561E0,-4.505005426E0,1.038753100E1
1.435767988E1,3.390089920E-1,1.122056593E1,-4.583511897E0,1.212537044E1
1.436760088E1,4.064142323E-1,1.263820466E1,-4.946811685E0,1.357793560E1
1.437752288E1,5.201047160E-1,1.356194077E1,-5.319547125E0,1.457718518E1
1.438744388E1,7.010460734E-1,1.366458279E1,-4.177805178E0,1.430616457E1
1.439736588E1,8.683508469E-1,1.302993536E1,-2.028040091E0,1.321537723E1
1.440728788E1,1.086471433E0,1.220697016E1,-4.043897800E-3,1.225522570E1
1.441720888E1,1.201360449E0,1.182111942E1,1.553642621E0,1.198315220E1
1.442713088E1,1.215056675E0,1.143392615E1,2.103408362E0,1.168911274E1
1.443705188E1,1.070046604E0,1.119220460E1,2.696919461E0,1.156217186E1
1.444697388E1,9.691797951E-1,1.092074410E1,2.804124652E0,1.131658413E1
1.445689488E1,9.092202531E-1,1.040221185E1,2.538186268E0,1.074593329E1
1.446681688E1,1.014544833E0,9.838002316E0,2.503550870E0,1.020212516E1
1.447673888E1,1.210382119E0,9.427271669E0,2.604301904E0,9.854991852E0
1.448665988E1,1.478707044E0,9.186330716E0,2.666902195E0,9.679236223E0
1.449658188E1,1.827009455E0,9.225176693E0,2.599233830E0,9.756939329E0
1.450650288E1,2.206288952E0,9.510057718E0,2.543106700E0,1.008842408E1
1.451642488E1,2.528953222E0,9.754720423E0,2.584836524E0,1.040343957E1
1.452634587E1,2.875877297E0,9.951750541E0,2.665381627E0,1.069636706E1
1.453626787E1,3.115461696E0,1.006800371E1,2.804231949E0,1.090571030E1
1.454618987E1,3.227277709E0,1.000757508E1,2.923835868E0,1.091401377E1
1.455611088E1,3.075863767E0,9.738319568E0,2.955722781E0,1.063165571E1
1.456603288E1,2.840929951E0,9.432809567E0,3.168973952E0,1.034848661E1
1.457595388E1,2.642552927E0,9.221100014E0,3.304516211E0,1.014552112E1
1.458587588E1,2.472465025E0,9.040004144E0,3.066913726E0,9.861070836E0
1.459579788E1,2.360718010E0,8.944485784E0,2.791532381E0,9.662787822E0
1.460571888E1,2.170151989E0,8.810566419E0,2.632514720E0,9.448056627E0
1.461564088E1,1.482661516E0,8.267483461E0,2.418218944E0,8.740557809E0
1.462556188E1,-5.092389813E-1,6.863780991E0,9.151711106E-2,6.883254260E0
1.463548388E1,-2.047673287E0,5.685868753E0,-4.135436254E0,7.322834313E0
1.464540488E1,-4.527340328E0,1.136962432E0,-2.251534005E1,2.299413037E1
1.465532688E1,-4.577592176E0,-1.674415106E0,-1.311758629E1,1.399389460E1
1.466524888E1,-8.301025429E0,-1.000047188E1,-8.555245408E0,1.555984206E1
1.467516988E1,-1.446691433E1,-2.986984627E1,-2.535908660E1,4.176820082E1
1.468509188E1,-1.336771264E1,-3.604012995E1,3.352960101E-1,3.844085237E1
1.469501288E1,-1.708673358E1,-3.853995263E1,1.868374149E1,4.611254286E1
1.470493488E1,-1.782701330E1,-3.428872046E1,1.484059001E1,4.139760700E1
1.471485588E1,-1.176083462E1,-2.480845430E1,4.734177395E0,2.786016999E1
1.472477788E1,-5.986696304E0,-1.672566334E1,1.852833536E-1,1.776577261E1
1.473469987E1,-4.063415806E0,-1.195611058E1,3.250069863E0,1.303928228E1
1.474462087E1,-3.029150069E0,-1.046509865E1,2.155198613E0,1.110580573E1
1.475454287E1,-2.870775309E0,-1.215345644E1,5.604617599E-1,1.250047886E1
1.476446388E1,-3.095693429E0,-1.471719621E1,1.368881424E-1,1.503987768E1
1.477438588E1,-2.132836521E0,-1.490894747E1,-2.191035028E-1,1.506232759E1
1.478430788E1,-4.319841063E-1,-1.304229170E1,-8.365108573E-1,1.307622780E1
1.479422888E1,1.187311637E0,-1.111610893E1,-2.313884736E0,1.141628877E1
1.480415088E1,2.367954524E0,-9.005481598E0,-5.057330493E0,1.059634367E1
1.481407188E1,2.525226206E0,-6.750727415E0,-8.658631783E0,1.126592173E1
1.482399388E1,1.225937759E0,-4.516257808E0,-1.030474695E1,1.131756677E1
1.483391488E1,-3.162144989E-2,-2.283668080E0,-8.394506620E0,8.699648338E0
1.484383650E1,-2.350456439E-1,1.373534346E-1,-5.971368998E0,5.977571424E0
1.485375850E1,-1.711301681E-1,2.643651327E0,-4.439812480E0,5.170117284E0
1.486367950E1,1.468747482E-2,5.189553580E0,-3.645593364E0,6.342084283E0
1.487360150E1,2.849482673E-1,7.708708915E0,-3.338543206E0,8.405430351E0
1.488352250E1,4.797805627E-1,9.871603925E0,-3.441635465E0,1.046535275E1
1.489344450E1,7.525027406E-1,1.114446559E1,-3.222295296E0,1.162534131E1
1.490336550E1,1.156298151E0,1.152542221E1,-2.183994103E0,1.178737515E1
1.491328750E1,1.563953455E0,1.146546837E1,-1.087815415E0,1.162266139E1
1.492320950E1,1.758820541E0,1.149535700E1,-2.426799148E-1,1.163166264E1
1.493313050E1,1.765183481E0,1.166752125E1,3.428994370E-1,1.180527445E1
1.494305250E1,1.910904574E0,1.144057678E1,6.730636382E-1,1.161857857E1
1.495297350E1,2.041695824E0,1.139293249E1,9.090385509E-1,1.161007251E1
1.496289550E1,2.208781035E0,1.150065107E1,1.082614244E0,1.176077133E1
1.497281750E1,2.145901101E0,1.098688547E1,1.216376465E0,1.126037812E1
1.498273850E1,1.608012371E0,1.013537533E1,1.256000487E0,1.033871724E1
1.499266050E1,1.371918906E0,9.634728541E0,1.216149374E0,9.807608009E0
1.500258150E1,1.389657604E0,9.594120213E0,1.164518752E0,9.763933370E0
1.501250350E1,1.521037085E0,9.725176197E0,1.149474743E0,9.910292531E0
1.502242450E1,1.820427975E0,9.999350384E0,1.217289581E0,1.023634505E1
1.503234650E1,2.218186281E0,1.021101024E1,1.440407928E0,1.054797874E1
1.504226850E1,2.588173530E0,1.047684805E1,1.816928855E0,1.094368392E1
1.505218950E1,2.826641110E0,1.067721926E1,2.288397893E0,1.127961330E1
1.506211150E1,2.978677196E0,1.068957326E1,2.675153201E0,1.141472466E1
1.507203250E1,3.138235724E0,1.037335584E1,3.028711528E0,1.125291644E1
1.508195450E1,3.204644891E0,1.005475275E1,3.188575865E0,1.102428310E1
1.509187550E1,3.245254096E0,9.872178122E0,2.996443376E0,1.081527845E1
1.510179750E1,3.208045339E0,9.791832116E0,2.526538906E0,1.060919082E1
1.511171950E1,2.985108256E0,9.751154791E0,1.950016307E0,1.038260346E1
1.512164050E1,2.635786529E0,9.534558721E0,1.709595756E0,1.003881957E1
1.513156250E1,1.933999029E0,9.293410776E0,1.394656535E0,9.594420407E0
1.514148350E1,3.138718119E-1,8.926333687E0,-1.755335162E0,9.102700157E0
1.515140550E1,-3.019052512E0,7.948363481E0,-1.082162444E1,1.376222059E1
1.516132650E1,-2.772236277E0,6.123605350E0,-1.043314245E1,1.241105547E1
1.517124850E1,-4.513744674E0,3.345624769E-1,-2.191418079E1,2.237670983E1
1.518117050E1,-3.314003319E0,-2.921181816E0,-9.852325655E0,1.079741830E1
1.519109150E1,-3.859608181E0,-9.761252348E0,-1.127956434E1,1.540802370E1
1.520101350E1,-9.056510249E0,-2.252016283E1,-1.580935319E1,2.896746036E1
1.521093450E1,-1.383119803E1,-3.413718869E1,4.683743406E0,3.712932996E1
1.522085650E1,-2.304216482E1,-5.000263773E1,1.113884875E1,5.617187100E1
1.523077850E1,-2.714827144E1,-5.009686678E1,1.267994559E1,5.837384452E1
1.524069950E1,-2.059948814E1,-3.512518805E1,1.202971182E1,4.245976582E1
1.525062150E1,-1.161451624E1,-2.216770437E1,8.612732309E0,2.646664433E1
1.526054250E1,-5.923400195E0,-1.535011053E1,5.876576861E0,1.747131131E1
1.527046450E1,-1.846632126E0,-1.269418356E1,5.232285032E0,1.385384976E1
1.528038550E1,5.362586725E-1,-1.171805990E1,4.544950680E0,1.258002695E1
1.529030750E1,1.544961114E0,-1.086976457E1,2.455144111E0,1.125017419E1
1.530022950E1,2.916737348E0,-9.025623502E0,-6.292201920E-1,9.506058826E0
1.531015050E1,5.392298766E0,-5.887410582E0,-8.428181319E0,1.160916576E1
1.532007250E1,7.932603480E0,-2.888149141E0,-1.871200225E1,2.052819115E1
1.532999350E1,7.120354475E0,-2.696425372E0,-1.461466178E1,1.647903203E1
1.533991550E1,4.859981117E0,-2.606369480E0,-7.165090352E0,9.041631384E0
1.534983650E1,3.145289805E0,-1.046968521E0,-4.600299253E0,5.670250811E0
1.535975850E1,1.541887817E0,1.080372494E0,-3.257355786E0,3.762311721E0
1.536968050E1,1.782330003E-1,3.293386914E0,-2.658583946E0,4.236299442E0
1.537960150E1,-9.913975335E-1,5.720940937E0,-2.535368494E0,6.335623701E0
1.538952350E1,-1.912483322E0,7.945677854E0,-2.282323220E0,8.485304255E0
1.539944450E1,-2.783615836E0,1.005981059E1,-1.423460796E0,1.053444574E1
1.540936650E1,-2.854254586E0,1.124210240E1,-1.051826972E0,1.164637177E1
1.541928750E1,-2.648499253E0,1.173821058E1,-9.567155778E-1,1.207126508E1
1.542920950E1,-2.289938926E0,1.194162001E1,-9.146705890E-1,1.219355284E1
1.543913150E1,-1.964850693E0,1.202859383E1,-7.640182471E-1,1.221193808E1
1.544905250E1,-1.836529745E0,1.218657741E1,-6.242884310E-1,1.233998568E1
1.545897450E1,-1.735493659E0,1.228135727E1,-6.275570977E-1,1.241923921E1
1.546889550E1,-1.813028323E0,1.231940861E1,-7.338114580E-1,1.247370753E1
1.547881750E1,-1.736219299E0,1.206869287E1,-7.863312221E-1,1.221827000E1
1.548873850E1,-1.552706774E0,1.135755684E1,-7.689381675E-1,1.148896260E1
1.549866050E1,-1.392859101E0,1.058156700E1,-5.790300317E-1,1.068854024E1
1.550858250E1,-1.141799249E0,1.019887843E1,-3.742320344E-2,1.026266180E1
1.551850350E1,-8.307124659E-1,1.017671164E1,5.830726504E-1,1.022719496E1
1.552842550E1,-4.453908947E-1,1.022394895E1,1.016367702E0,1.028399283E1
1.553834650E1,-3.786152534E-2,1.029056277E1,1.328741312E0,1.037606232E1
1.554826850E1,3.599475789E-1,1.039178860E1,1.605943626E0,1.052130636E1
1.555818950E1,6.331952754E-1,1.034861510E1,1.935774536E0,1.054713202E1
1.556811150E1,8.186221781E-1,1.019669742E1,2.158043575E0,1.045466081E1
1.557803350E1,9.043104923E-1,9.923878033E0,2.372326487E0,1.024348894E1
1.558795450E1,9.669027431E-1,9.580181036E0,2.637035787E0,9.983422627E0
1.559787650E1,1.033583660E0,9.299626366E0,2.960281855E0,9.814000937E0
1.560779750E1,1.158579442E0,9.014529580E0,3.414747044E0,9.708993112E0
1.561771950E1,1.319019292E0,8.622896524E0,4.070834168E0,9.626310154E0
1.562764050E1,1.367054607E0,8.355601586E0,4.931437601E0,9.798162734E0
1.563756250E1,1.359957842E0,8.287227169E0,6.026103029E0,1.033641801E1
1.564748450E1,1.400469691E0,8.172706527E0,6.211984845E0,1.036065650E1
1.565740550E1,1.299986021E0,7.941283087E0,5.218007301E0,9.590700752E0
1.566732750E1,9.348458219E-1,7.643057547E0,3.724521712E0,8.553497961E0
1.567724850E1,3.715203881E-2,6.232192238E0,3.986554156E0,7.398257525E0
1.568717050E1,-9.134103678E-1,2.781208829E0,3.744362776E0,4.752861628E0
1.569709150E1,-7.196989837E0,-1.399026452E1,-2.150549550E1,2.664602223E1
1.570701350E1,-1.002762869E1,-4.331111220E1,-6.866337627E1,8.179893043E1
1.571693550E1,-1.495200753E1,-6.039173661E1,-6.020534141E0,6.250576943E1
1.572685650E1,-1.840936908E1,-6.865888093E1,1.879932808E1,7.352796432E1
1.573677850E1,-1.031454454E1,-5.061299817E1,1.578109125E1,5.401026063E1
1.574669950E1,-2.230448623E0,-2.900209374E1,1.398386766E1,3.227452397E1
1.575662150E1,5.580872056E-1,-1.908004004E1,1.043674901E1,2.175511708E1
1.576654350E1,1.623505007E0,-1.232082481E1,7.304781504E0,1.441521159E1
1.577646450E1,1.951828067E0,-8.302726384E0,5.659794849E0,1.023612114E1
1.578638650E1,1.534245945E0,-5.911899891E0,4.528322368E0,7.603300231E0
1.579630750E1,6.413962877E-1,-3.659488102E0,3.395799726E0,5.033358536E0
1.580622950E1,-3.613199570E-1,-1.639445833E0,1.962192256E0,2.582350325E0
1.581615050E1,-1.321701702E0,-6.478060055E-1,-3.331579757E-1,1.509152825E0
1.582607250E1,-1.747227851E0,-1.212412564E0,-3.894208202E0,4.437071885E0
1.583599350E1,-1.408000466E0,-1.825388460E0,-8.104094129E0,8.425606803E0
1.584591538E1,-2.350563443E0,-1.081286999E0,-1.450548140E1,1.473442638E1
1.585583738E1,-3.546128717E0,1.386318698E0,-1.543998457E1,1.590251653E1
1.586575838E1,-2.840612447E0,3.697024888E0,-9.358242949E0,1.045532320E1
1.587568038E1,-2.405785425E0,5.491595598E0,-5.738393707E0,8.299071518E0
1.588560138E1,-2.083772242E0,6.978507455E0,-3.490918722E0,8.076396881E0
1.589552338E1,-1.774175330E0,8.502632747E0,-2.025589523E0,8.918826977E0
1.590544438E1,-1.216867265E0,9.780500212E0,-1.349186540E0,9.947826630E0
1.591536638E1,-4.660160708E-1,1.053415661E1,-1.003535403E0,1.059210601E1
1.592528838E1,1.273680713E-1,1.109614888E1,-7.793812215E-1,1.112421582E1
1.593520937E1,4.443936521E-1,1.162773095E1,-4.364361763E-1,1.164440163E1
1.594513137E1,7.378756383E-1,1.192312526E1,-1.156906700E-1,1.194649576E1
1.595505238E1,1.211731948E0,1.198744931E1,-3.885427292E-1,1.205479991E1
1.596497438E1,1.677396894E0,1.189786062E1,-8.582308515E-1,1.204613248E1
1.597489538E1,2.103446953E0,1.090612957E1,-9.442294335E-1,1.114718442E1
1.598481738E1,2.121034793E0,9.395684425E0,-6.225903996E-1,9.652217011E0
1.599473938E1,1.947120327E0,8.597317294E0,-2.237624180E-1,8.817891576E0
1.600466038E1,1.823186691E0,8.280442645E0,9.293579176E-2,8.479291077E0
1.601458238E1,1.732282661E0,8.104353746E0,5.150836388E-1,8.303412793E0
1.602450338E1,1.790337618E0,8.118393495E0,1.032678949E0,8.377353254E0
1.603442538E1,2.030761824E0,8.477970945E0,1.425005046E0,8.833494457E0
1.604434638E1,2.262767646E0,9.116752943E0,1.585771902E0,9.526278086E0
1.605426838E1,2.235861099E0,9.600346329E0,1.749096475E0,1.001124682E1
1.606419038E1,2.058438742E0,9.744570242E0,1.988329164E0,1.015614455E1
1.607411138E1,1.787362409E0,9.661805243E0,2.319592788E0,1.009582367E1
1.608403338E1,1.507043090E0,9.461863212E0,2.598598530E0,9.927272971E0
1.609395438E1,1.302438635E0,9.266987793E0,2.779961618E0,9.762253621E0
1.610387638E1,1.131299258E0,9.146627537E0,2.929076142E0,9.670580146E0
1.611379738E1,1.008285096E0,9.096078942E0,3.247729222E0,9.710975032E0
1.612371937E1,1.045499993E0,9.111460628E0,3.501177077E0,9.816823617E0
1.613364137E1,1.214137931E0,9.044183149E0,3.693187068E0,9.844339006E0
1.614356238E1,1.376071891E0,8.839628835E0,3.350644019E0,9.552980013E0
1.615348438E1,1.235068332E0,8.253337292E0,2.449447900E0,8.697284936E0
1.616340538E1,3.002809824E-1,6.825122709E0,1.439574992E0,6.981750842E0
1.617332738E1,-2.246725956E0,2.910132918E0,-6.550620493E0,7.511809367E0
1.618324838E1,-5.603184446E0,-4.573022577E0,-3.366393845E1,3.443209206E1
1.619317038E1,-4.467987288E0,-6.230580745E0,-1.489926565E1,1.675622761E1
1.620309238E1,-6.176247248E0,-1.733707744E1,-3.936875335E0,1.882071390E1
1.621301338E1,-8.951338720E0,-3.400995094E1,-4.371552669E0,3.543887274E1
1.622293538E1,-1.360394717E1,-4.593808376E1,7.406042415E0,4.847911285E1
1.623285638E1,-1.314564708E1,-5.197225595E1,1.495639060E1,5.565623995E1
1.624277838E1,-2.900288838E0,-3.740817259E1,1.172282889E1,3.930913086E1
1.625269938E1,2.293050084E0,-2.007495782E1,5.209535855E0,2.086627120E1
1.626262138E1,3.731077318E0,-1.387252147E1,2.823695283E0,1.464039088E1
1.627254338E1,4.365162832E0,-1.258565573E1,1.208299925E0,1.337585008E1
1.628246438E1,3.709459869E0,-1.364568459E1,5.837360170E-1,1.415293426E1
1.629238638E1,3.522172675E0,-1.395699035E1,5.378597863E-1,1.440460250E1
1.630230738E1,3.646277780E0,-1.251313622E1,1.454741938E-1,1.303438079E1
1.631222938E1,3.547716236E0,-1.040198147E1,-3.539775717E-1,1.099603606E1
1.632215037E1,3.243995775E0,-8.242329324E0,-1.124206731E0,8.928792866E0
1.633207237E1,2.592354873E0,-6.332228158E0,-2.980553859E0,7.463318199E0
1.634199338E1,1.145961443E0,-4.352927533E0,-6.138491192E0,7.611982649E0
1.635191538E1,-7.395973510E-1,-2.553933404E0,-9.035780116E0,9.418858868E0
1.636183738E1,-1.784393046E0,-7.802670747E-1,-9.187085007E0,9.391240928E0
1.637175838E1,-1.948916738E0,1.116798894E0,-7.182862380E0,7.525890524E0
1.638168038E1,-1.768213801E0,3.268953738E0,-5.293721727E0,6.468085367E0
1.639160138E1,-1.618196759E0,5.552034173E0,-4.239354724E0,7.170479251E0
1.640152338E1,-1.645290417E0,7.777395573E0,-3.444014697E0,8.663492349E0
1.641144438E1,-1.640432551E0,9.818474954E0,-2.713981052E0,1.031790495E1
1.642136638E1,-1.476194788E0,1.129800879E1,-2.106219118E0,1.158707525E1
1.643128838E1,-1.289291609E0,1.214969669E1,-1.511877129E0,1.231109966E1
1.644120938E1,-1.183040830E0,1.267786983E1,-1.030378216E0,1.277457037E1
1.645113138E1,-1.110628766E0,1.279954805E1,-7.809775114E-1,1.287135783E1
1.646105238E1,-1.145698319E0,1.287635707E1,-4.678672993E-1,1.293569078E1
1.647097438E1,-1.392894477E0,1.301071673E1,-7.876203138E-2,1.308530123E1
1.648089538E1,-2.076174809E0,1.290676376E1,4.150985169E-1,1.307927213E1
1.649081738E1,-2.666847816E0,1.183834765E1,9.522961792E-1,1.217232190E1
1.650073938E1,-2.383154800E0,1.019606826E1,9.548877382E-1,1.051432572E1
1.651066038E1,-1.785973403E0,9.403352464E0,8.487104881E-1,9.609008692E0
1.652058238E1,-1.140037848E0,9.085793105E0,6.924399953E-1,9.183180048E0
1.653050337E1,-2.047800171E-1,9.123463207E0,5.027167046E-1,9.139597356E0
1.654042537E1,9.231591381E-1,9.650687347E0,4.383854918E-1,9.704646872E0
1.655034638E1,1.901694624E0,1.041561484E1,6.730073588E-1,1.060916650E1
1.656026838E1,2.516688102E0,1.089108235E1,1.352673673E0,1.125962343E1
1.657018938E1,2.840449895E0,1.090202833E1,2.122244875E0,1.146413105E1
