"Time (s)","Linear Acceleration x (m/s^2)","Linear Acceleration y (m/s^2)","Linear Acceleration z (m/s^2)","Absolute acceleration (m/s^2)"
3.210091672E-2,-5.415916255E-1,3.280133030E-1,-9.383272541E-1,1.131977143E0
4.202091671E-2,-6.476703501E-1,4.516304585E-1,-6.815713370E-1,1.043065885E0
5.194191670E-2,-5.509889781E-1,3.908276019E-1,-4.730596268E-1,8.246941730E-1
6.186191668E-2,-5.262499934E-1,2.974159929E-1,-2.784701371E-1,6.655380873E-1
7.178291667E-2,-5.494565691E-1,4.136367130E-1,-1.505622947E-1,7.040361186E-1
8.170291665E-2,-6.321797602E-1,4.974316987E-1,-3.117577511E-1,8.627180533E-1
9.162391664E-2,-3.089294529E-1,6.150829402E-1,-1.109509170E-2,6.883948948E-1
1.015439166E-1,-2.758131623E-1,6.542779961E-1,-2.091619205E-1,7.402035570E-1
1.114649167E-1,-1.755142643E-1,1.231140026E-1,2.085099560E-1,2.990630642E-1
1.213849167E-1,4.153809375E-1,-9.274031934E-1,3.830394030E-1,1.085972924E0
1.313059167E-1,9.898763072E-1,1.605551863E-1,9.047917181E-1,1.350659515E0
1.412259167E-1,-2.878996494E-1,1.156123758E0,1.511455545E0,1.924579491E0
1.511469167E-1,-1.305037576E0,1.409965130E0,1.624183431E0,2.515769576E0
1.610669167E-1,-4.521284951E-1,9.022068103E-1,1.851462949E0,2.108628074E0
1.709869166E-1,1.819678362E-1,8.922149420E-2,1.812219946E0,1.823516904E0
1.809079166E-1,6.581068260E-1,-4.755359226E-1,1.768387463E0,1.945875954E0
1.908279167E-1,7.257110909E-1,-4.521160698E-1,2.111949974E0,2.278464005E0
2.007489167E-1,6.019680740E-1,-1.782953462E-1,2.716011205E0,2.787628322E0
2.106689167E-1,4.840862330E-1,-1.743696718E-1,2.547001530E0,2.598453590E0
2.205899167E-1,8.881930809E-1,-4.263430781E-1,2.210845687E0,2.420432610E0
2.305099167E-1,1.242180447E0,-7.675231413E-1,1.371116522E0,2.003013867E0
2.404309167E-1,1.261906906E0,-1.054853637E0,5.354956108E-1,1.729705404E0
2.503509166E-1,7.390398189E-1,-1.066030736E0,5.585523516E-1,1.412296751E0
2.602719166E-1,5.103585769E-1,-5.238339239E-1,7.946272516E-1,1.079953854E0
2.701919167E-1,9.896022190E-1,7.433755293E-2,3.078944957E-1,1.039056131E0
2.801129167E-1,1.239326713E0,1.957851722E-1,-2.157458854E-1,1.273109902E0
2.900329167E-1,1.415586497E0,1.010461722E-1,-4.325337446E-1,1.483637726E0
2.999529167E-1,1.696094243E0,2.431316122E-2,-4.307064897E-1,1.750095681E0
3.098739167E-1,1.981436028E0,-2.754605752E-1,-1.052480691E0,2.260460764E0
3.197939167E-1,2.146704070E0,-8.920693463E-1,-2.182364484E0,3.188548388E0
3.297149166E-1,1.474548212E0,-8.536472923E-1,-2.311598475E0,2.871670879E0
3.396349166E-1,-6.558237076E-3,-1.895457984E0,-9.482365304E-1,2.119423624E0
3.495559166E-1,-1.342580940E0,-1.733471107E0,-5.631231201E-1,2.263747625E0
3.594759167E-1,-3.399693972E-1,2.825509089E-1,-3.727050340E0,3.753174449E0
3.693969167E-1,1.126350321E0,8.432488963E-1,-7.873652437E0,7.998383364E0
3.793169167E-1,-4.671325967E-1,5.597475225E-1,-8.282062908E0,8.314090219E0
3.892379167E-1,-1.898416091E0,1.320239899E-1,-4.125410618E0,4.543173643E0
3.991579167E-1,-1.535290550E0,-7.129474962E-1,-2.459807850E0,2.985978209E0
4.090789167E-1,-9.475931905E-1,-8.779415962E-1,-2.221458383E0,2.569745444E0
4.189989166E-1,-1.237567871E0,-4.393568605E-2,-2.313692363E0,2.624247879E0
4.289199166E-1,1.033292907E0,-1.373750693E0,-3.541391888E0,3.936539305E0
4.388399167E-1,1.817946124E-1,-1.482557143E0,-3.484096776E0,3.790772389E0
4.487599167E-1,-9.297081658E-1,-1.867293701E0,-4.491275579E0,4.952039919E0
4.586770417E-1,-6.977877125E-1,-2.730547383E0,-6.251109735E0,6.857052546E0
4.685970417E-1,-3.912139201E-1,-2.670377488E0,-7.548267165E0,8.016252332E0
4.785180417E-1,-2.058573666E-1,-1.257296815E0,-7.466949352E0,7.574860075E0
4.884380416E-1,-3.335710084E-1,7.002442740E-1,-4.330239751E0,4.399157643E0
4.983590416E-1,-5.065142519E-1,1.586754380E0,-1.669602263E-1,1.673983831E0
5.082790416E-1,7.783609555E-1,5.659002551E-1,7.865849912E-2,9.655444243E-1
5.182000417E-1,1.767207056E0,-2.988893451E-1,3.971797246E-1,1.835785215E0
5.281200417E-1,1.543448293E0,-5.776442416E-1,1.517398070E0,2.240179101E0
5.380410417E-1,1.555361995E0,-4.139375523E-1,2.194834841E0,2.721726513E0
5.479610417E-1,2.073019797E0,6.686261863E-2,2.185986834E0,3.013373546E0
5.578820417E-1,2.362848443E0,1.196778864E-2,2.064721429E0,3.137876762E0
5.678020417E-1,2.467534946E0,6.868119040E-1,1.762325655E0,3.109056290E0
5.777220416E-1,2.302809233E0,1.683104946E0,1.345995129E0,3.153961875E0
5.876430416E-1,1.788623068E0,2.406378625E0,1.264779643E0,3.254150905E0
5.975630417E-1,1.019688556E0,2.698961309E0,1.388440068E0,3.201862383E0
6.074840417E-1,-1.293050053E0,3.743905232E0,2.451262729E0,4.658056869E0
6.174040417E-1,-3.714644303E0,4.333307493E0,3.949901762E0,6.941027305E0
6.273250417E-1,-4.248237814E0,3.061575511E0,6.527340388E0,8.368210184E0
6.372450417E-1,-4.116670492E0,2.101355404E0,9.757778517E0,1.079707887E1
6.471660417E-1,-3.072491678E0,1.546317814E0,1.310491538E1,1.354880478E1
6.570860416E-1,-9.905157734E-1,1.091332808E0,1.565715016E1,1.572636258E1
6.670070416E-1,1.373786945E0,7.536955726E-1,1.643955907E1,1.651406825E1
6.769270417E-1,3.168527517E0,6.586973217E-1,1.574018647E1,1.606944053E1
6.868470417E-1,3.715975714E0,1.057823292E0,1.431539193E1,1.482760640E1
6.967680417E-1,3.442414314E0,1.179154479E0,1.253934461E1,1.305663758E1
7.066880417E-1,2.730256777E0,8.147305638E-1,1.057945148E1,1.095640824E1
7.166090417E-1,1.826582608E0,3.417118675E-1,8.382374817E0,8.585882517E0
7.265290417E-1,6.237719026E-1,1.464978951E-1,5.782882247E0,5.818271230E0
7.364500416E-1,-3.181095815E-1,2.151453763E-2,3.215862190E0,3.231629032E0
7.463700416E-1,-7.243796799E-1,-2.169547972E-1,1.038369021E0,1.284525410E0
7.562910416E-1,-7.432429437E-1,-3.999431187E-1,-6.676333290E-1,1.076150005E0
7.662110417E-1,-5.354679827E-1,-4.811539274E-1,-2.179250842E0,2.295075008E0
7.761320417E-1,-4.945478520E-1,-7.991912958E-1,-3.847985378E0,3.961095275E0
7.860520417E-1,-4.436314675E-1,-1.286317862E0,-5.166807911E0,5.342969822E0
7.959720417E-1,-6.103376323E-1,-1.498319483E0,-5.980373125E0,6.195347933E0
8.058930417E-1,-4.250475544E-1,-1.103811935E0,-5.184022699E0,5.317250940E0
8.158130416E-1,-1.509213722E0,-9.644982219E-3,-6.221505867E0,6.401949261E0
8.257340416E-1,-2.127521987E0,-1.652637736E0,-7.820260341E0,8.271277597E0
8.356540417E-1,-2.589999615E0,-2.755455060E0,-8.432962003E0,9.242049488E0
8.455750417E-1,-3.308752812E0,-2.871780446E0,-9.724478624E0,1.066585452E1
8.554950417E-1,-3.834666590E0,-2.280918281E0,-9.334669899E0,1.034617408E1
8.654160417E-1,-3.841380071E0,-1.215052582E0,-8.306283245E0,9.231841364E0
8.753360417E-1,-3.521454929E0,-1.548876994E0,-8.085991150E0,8.954491478E0
8.852570417E-1,-3.048918335E0,-1.904512398E0,-8.099361978E0,8.861305487E0
8.951770416E-1,-3.603285835E0,-2.560596014E0,-8.926225514E0,9.960814358E0
9.050980416E-1,-4.339735922E0,-2.819422722E0,-8.862857484E0,1.026317179E1
9.150180416E-1,-4.500315374E0,-2.576821160E0,-8.972896235E0,1.036367274E1
9.249380417E-1,-4.537232355E0,-2.530764104E0,-9.220279065E0,1.058323157E1
9.348590417E-1,-4.714678685E0,-2.564954236E0,-1.000510521E1,1.135382384E1
9.447790417E-1,-4.889887286E0,-2.487339173E0,-1.007341940E1,1.147046783E1
9.547000417E-1,-4.805384203E0,-2.073969385E0,-9.617206190E0,1.094914249E1
9.646200417E-1,-4.268812412E0,-1.814251853E0,-9.186289201E0,1.029087841E1
9.745410417E-1,-3.912081094E0,-1.494242511E0,-9.131950441E0,1.004637537E1
9.844610416E-1,-3.906987292E0,-1.526440204E0,-8.979647430E0,9.911036140E0
9.943820416E-1,-4.016507103E0,-1.737058082E0,-8.370372237E0,9.445254442E0
1.004302042E0,-4.014097173E0,-1.710305170E0,-7.313963386E0,8.516582666E0
1.014223042E0,-3.921987739E0,-1.637940760E0,-5.847149579E0,7.228692548E0
1.024143042E0,-3.333961328E0,-1.370569223E0,-3.836359359E0,5.264162921E0
1.034064042E0,-2.725851485E0,-7.150954708E-1,-1.800453009E0,3.344137988E0
1.043984042E0,-1.664781380E0,-1.636078714E-1,-6.459079993E-1,1.793170857E0
1.053904042E0,-5.669258568E-1,4.610783896E-1,-3.807706833E-3,7.307617307E-1
1.063825042E0,2.408071978E-1,1.239482249E0,1.919016416E0,2.297156581E0
1.073745042E0,9.037991533E-1,1.703727198E0,4.655753662E0,5.039402885E0
1.083666042E0,1.082498104E0,2.370059668E0,7.012697879E0,7.481103964E0
1.093586042E0,6.449841392E-1,3.509085436E0,9.334665806E0,9.993281286E0
1.103507042E0,8.528574796E-1,4.634400508E0,1.158711853E1,1.250865099E1
1.113427042E0,1.947334189E0,4.980315061E0,1.437892894E1,1.534109664E1
1.123348042E0,3.296549672E0,4.990521376E0,1.848945606E1,1.943276945E1
1.133268042E0,5.585959718E0,4.239706142E0,2.357467309E1,2.459559443E1
1.143188042E0,8.685409691E0,2.267018426E0,2.838642169E1,2.977187684E1
1.153109042E0,1.094468026E1,7.305014223E-1,3.133619464E1,3.320055350E1
1.163029042E0,1.195180937E1,-2.908473770E-1,3.148908764E1,3.368223537E1
1.172950042E0,1.131253328E1,-1.322164217E0,2.849539041E1,3.068727426E1
1.182870042E0,9.307579165E0,-1.711239409E0,2.373633925E1,2.555333972E1
1.192791042E0,6.386341799E0,-1.263398092E0,1.863624105E1,1.974059312E1
1.202711042E0,3.501326766E0,-5.525943312E-1,1.324728806E1,1.371332529E1
1.212632042E0,1.088138912E0,-3.492761180E-2,7.992825124E0,8.066630008E0
1.222552042E0,-3.913841106E-1,2.496427792E-1,3.738822539E0,3.767531954E0
1.232473042E0,-6.738221683E-1,2.418905407E-1,5.721523905E-1,9.164636960E-1
1.242393042E0,-3.539176378E-1,1.279642680E-1,-1.840195949E0,1.878284771E0
1.252313042E0,3.147535720E-1,-4.199022970E-1,-3.997171823E0,4.031472477E0
1.262234042E0,9.621032023E-1,-1.313086707E0,-6.242159986E0,6.450922459E0
1.272154042E0,8.841285351E-1,-2.152874344E0,-8.631703600E0,8.939958515E0
1.282075042E0,4.898504913E-3,-2.787589019E0,-1.085742577E1,1.120956605E1
1.291995042E0,-1.520032825E0,-2.943574606E0,-1.293789902E1,1.335531213E1
1.301916042E0,-2.853892059E0,-2.635469318E0,-1.410104353E1,1.462634018E1
1.311836042E0,-4.521649525E0,-2.416054012E0,-1.494151412E1,1.579656531E1
1.321757042E0,-5.700651684E0,-3.110906715E0,-1.700733073E1,1.820506712E1
1.331677042E0,-6.537195286E0,-2.995815385E0,-1.702983900E1,1.848581209E1
1.341598042E0,-7.515192389E0,-2.775938149E0,-1.678276724E1,1.859691441E1
1.351518042E0,-7.852176783E0,-2.898284705E0,-1.618926082E1,1.822495269E1
1.361438042E0,-7.847825285E0,-3.023358694E0,-1.532917984E1,1.748464509E1
1.371359042E0,-7.673289406E0,-3.000652201E0,-1.420511227E1,1.642158636E1
1.381279042E0,-7.205639623E0,-2.986930541E0,-1.233356238E1,1.459314077E1
1.391200042E0,-6.739503685E0,-2.924520284E0,-1.071075422E1,1.298822485E1
1.401120042E0,-6.264368881E0,-2.670286271E0,-9.320396261E0,1.154307293E1
1.411041042E0,-5.671662358E0,-2.174566930E0,-8.118801046E0,1.013959692E1
1.420961042E0,-5.121006671E0,-1.613034837E0,-7.050853885E0,8.862343438E0
1.430882042E0,-4.486662710E0,-1.096509640E0,-6.001066421E0,7.572666232E0
1.440802042E0,-3.819803553E0,-7.490844584E-1,-5.048866648E0,6.375192635E0
1.450723042E0,-3.308146455E0,-5.880702657E-1,-4.168708080E0,5.354230726E0
1.460642583E0,-3.001886841E0,-5.184319738E-1,-3.223974617E0,4.435550546E0
1.470562583E0,-2.786398818E0,-4.722141194E-1,-2.422159383E0,3.722077461E0
1.480483583E0,-2.800033063E0,-3.796363235E-1,-2.159730497E0,3.556507375E0
1.490403583E0,-2.799650070E0,-3.889570776E-1,-1.977363442E0,3.449535376E0
1.500324583E0,-2.641092878E0,-4.614531961E-1,-1.527695017E0,3.085800173E0
1.510244583E0,-2.378702291E0,-5.044582978E-1,-1.249938825E0,2.734053736E0
1.520165583E0,-2.124698366E0,-4.249171615E-1,-1.003662288E0,2.387935453E0
1.530085583E0,-1.914622818E0,-2.242138231E-1,-3.845374596E-1,1.965685995E0
1.540006583E0,-1.617546841E0,7.316036224E-2,6.962993038E-1,1.762567145E0
1.549926583E0,-9.080796075E-1,5.540356699E-1,2.316695493E0,2.549243438E0
1.559847583E0,7.277035296E-2,1.405992240E0,3.815918663E0,4.067351096E0
1.569767583E0,1.148210429E0,2.552494404E0,4.944245342E0,5.681476646E0
1.579687583E0,1.798925716E0,4.108549002E0,6.542612731E0,7.932344545E0
1.589608583E0,2.300889884E0,5.204417202E0,8.468713633E0,1.020289975E1
1.599528583E0,3.224906078E0,5.542428367E0,1.152881945E1,1.319212679E1
1.609449583E0,5.265487277E0,6.020444094E0,1.547497782E1,1.741970269E1
1.619369583E0,8.229060822E0,5.286426741E0,2.010816298E1,2.236072379E1
1.629290583E0,1.114281083E1,3.062911600E0,2.549066065E1,2.798780879E1
1.639210583E0,1.323733142E1,1.218752115E0,2.912816205E1,3.201815304E1
1.649131583E0,1.316279462E1,-2.106631932E-1,2.879470937E1,3.166131440E1
1.659051583E0,1.086904068E1,-1.267761138E0,2.546334012E1,2.771506727E1
1.668972583E0,7.513085053E0,-1.316854653E0,2.126136021E1,2.258818256E1
1.678892583E0,4.530502210E0,-9.502865642E-1,1.700471352E1,1.762352906E1
1.688812583E0,2.601368064E0,-8.240826005E-1,1.286947958E1,1.315559700E1
1.698733583E0,1.372217553E0,-4.220979264E-1,8.839705433E0,8.955531242E0
1.708653583E0,1.178579405E0,-9.372852802E-2,5.272823778E0,5.403749166E0
1.718574583E0,1.492741239E0,6.116187572E-2,2.308339237E0,2.749626741E0
1.728494583E0,2.004234906E0,1.409491798E-1,-4.015908641E-1,2.048926415E0
1.738415583E0,2.353160484E0,-1.049215606E-1,-3.109807731E0,3.901189167E0
1.748335583E0,2.216329790E0,-5.257249135E-1,-5.585254544E0,6.031879703E0
1.758256583E0,1.662131568E0,-1.012255356E0,-7.583004304E0,7.828748081E0
1.768176583E0,6.867776978E-1,-1.459542795E0,-9.152281795E0,9.293341209E0
1.778096583E0,-7.352341586E-1,-1.604649345E0,-1.045492684E1,1.060287527E1
1.788017583E0,-2.137913366E0,-1.552744489E0,-1.167556936E1,1.197082323E1
1.797937583E0,-3.190124500E0,-1.637891351E0,-1.263045593E1,1.312966105E1
1.807858583E0,-3.807337874E0,-1.762778521E0,-1.336065037E1,1.400393474E1
1.817778583E0,-4.097330826E0,-1.689757323E0,-1.406744893E1,1.474911927E1
1.827699583E0,-4.133034802E0,-1.559395404E0,-1.439704011E1,1.505949715E1
1.837619583E0,-4.062441952E0,-1.583675675E0,-1.429555583E1,1.494571443E1
1.847540583E0,-3.998595035E0,-1.692700519E0,-1.410141073E1,1.475478844E1
1.857460583E0,-3.933158552E0,-1.663498647E0,-1.393592400E1,1.457555974E1
1.867381583E0,-3.824077283E0,-1.670770537E0,-1.376999523E1,1.438846099E1
1.877301583E0,-3.730294960E0,-1.813049081E0,-1.337309558E1,1.400149752E1
1.887221583E0,-3.718741447E0,-1.848884619E0,-1.281676459E1,1.347281956E1
1.897142583E0,-3.617879900E0,-1.809171792E0,-1.206027989E1,1.272055457E1
1.907062583E0,-3.480029745E0,-1.813045865E0,-1.110807018E1,1.178078798E1
1.916983583E0,-3.358306795E0,-1.758415622E0,-1.004560537E1,1.073705906E1
1.926903583E0,-3.277062072E0,-1.697626798E0,-8.963474032E0,9.693551428E0
1.936824583E0,-3.176571239E0,-1.644575888E0,-7.806077335E0,8.586622039E0
1.946744583E0,-3.046240018E0,-1.629412596E0,-6.383450936E0,7.258306242E0
1.956665583E0,-2.898839021E0,-1.715652887E0,-4.620955127E0,5.718387779E0
1.966585583E0,-2.760360874E0,-1.742917284E0,-2.696305504E0,4.234077962E0
1.976506583E0,-2.531383032E0,-1.734977642E0,-1.115862170E0,3.265454923E0
1.986426583E0,-2.082638467E0,-1.733062094E0,1.502804589E-1,2.713571710E0
1.996346583E0,-1.404456176E0,-1.509806922E0,1.429572306E0,2.509121574E0
2.006267583E0,-5.905968475E-1,-1.221309103E0,2.444130880E0,2.795384825E0
2.016187583E0,1.732872060E-1,-8.196208826E-1,3.109482041E0,3.220354858E0
2.026108583E0,1.005749744E0,-1.995947063E-2,3.735010740E0,3.868104982E0
2.036028583E0,1.167775505E0,1.051032043E0,4.622516334E0,4.882215198E0
2.045949583E0,1.174944483E0,1.596587204E0,6.160938068E0,6.471996842E0
2.055869583E0,1.369690971E0,2.005519247E0,7.369897851E0,7.759739374E0
2.065790583E0,1.421563083E0,3.055964230E0,8.394903646E0,9.046223864E0
2.075710583E0,1.984281575E0,4.441254111E0,9.342919151E0,1.053338738E1
2.085630583E0,2.950894735E0,5.898583442E0,1.048182871E1,1.238425611E1
2.095551583E0,4.577819633E0,7.074150946E0,1.266638824E1,1.521306791E1
2.105471583E0,6.802691036E0,6.821535442E0,1.587078988E1,1.856588060E1
2.115392583E0,8.210645601E0,5.200028867E0,1.861695810E1,2.100109831E1
2.125312583E0,8.839815946E0,3.501861786E0,2.027110150E1,2.239024202E1
2.135233583E0,9.112505525E0,2.327152361E0,2.094691333E1,2.296141487E1
2.145153583E0,8.367533414E0,1.238462202E0,2.074736423E1,2.240541288E1
2.155074583E0,6.134601624E0,2.311693785E-1,1.916225891E1,2.012160388E1
2.164994583E0,3.523808433E0,-5.695831239E-2,1.592456906E1,1.630988565E1
2.174915583E0,1.404095111E0,3.850479215E-1,1.180582427E1,1.189526089E1
2.184835583E0,2.065561089E-1,8.052475494E-1,7.739102742E0,7.783623854E0
2.194755583E0,7.798402280E-2,9.872900838E-1,4.382569993E0,4.493077226E0
2.204676583E0,5.014235929E-1,1.097988109E0,1.480034947E0,1.909844745E0
2.214596583E0,1.274592148E0,8.299415106E-1,-1.009290233E0,1.825391692E0
2.224517583E0,2.021492963E0,3.337342188E-1,-3.388828091E0,3.960046485E0
2.234437583E0,2.291139652E0,-1.815823585E-1,-5.490857679E0,5.952462609E0
2.244358583E0,1.855235280E0,-6.774081194E-1,-7.357036316E0,7.617529984E0
2.254278583E0,7.180448064E-1,-1.133483047E0,-9.077222841E0,9.175856727E0
2.264199583E0,-8.841931468E-1,-1.173724169E0,-1.046368129E1,1.056636418E1
2.274119583E0,-2.592542569E0,-9.632439941E-1,-1.144859097E1,1.177791795E1
2.284039583E0,-3.993534270E0,-1.062900429E0,-1.208042823E1,1.276772570E1
2.293960583E0,-5.093371561E0,-1.391292924E0,-1.237831229E1,1.345736769E1
2.303880583E0,-5.951043491E0,-1.613888238E0,-1.251908752E1,1.395518205E1
2.313801583E0,-6.512093189E0,-1.713038597E0,-1.259882951E1,1.428538987E1
2.323721583E0,-6.679159834E0,-1.831202639E0,-1.250211422E1,1.429221254E1
2.333642583E0,-6.691369990E0,-1.903681801E0,-1.227365181E1,1.410818789E1
2.343562583E0,-6.740781886E0,-1.915779982E0,-1.192994078E1,1.383588958E1
2.353483583E0,-6.781506574E0,-1.977312279E0,-1.145227589E1,1.345560174E1
2.363403583E0,-6.813225964E0,-2.014774805E0,-1.100441074E1,1.309871831E1
2.373323583E0,-6.779831931E0,-2.026707218E0,-1.047889925E1,1.264440559E1
2.383244583E0,-6.717074350E0,-1.888115343E0,-9.890759404E0,1.210418064E1
2.393164583E0,-6.372944659E0,-1.702038815E0,-9.052191496E0,1.120060403E1
2.403085583E0,-5.907429695E0,-1.520043058E0,-8.078238326E0,1.012255852E1
2.413005583E0,-5.419346817E0,-1.387385815E0,-7.044626600E0,8.995605775E0
2.422926583E0,-4.881982436E0,-1.234144326E0,-5.973099189E0,7.812475833E0
2.432846583E0,-4.457924522E0,-9.936784592E-1,-5.109359018E0,6.853177183E0
2.442767583E0,-4.185979293E0,-7.594439703E-1,-4.329978966E0,6.070246752E0
2.452687583E0,-3.950290894E0,-6.863719010E-1,-3.494281456E0,5.318449720E0
2.462609083E0,-3.458469307E0,-7.559859270E-1,-2.428521738E0,4.293045830E0
2.472529083E0,-2.790757917E0,-7.444005463E-1,-1.289228606E0,3.163000525E0
2.482449083E0,-2.092500966E0,-6.742713806E-1,-2.636205482E-1,2.214203690E0
2.492370083E0,-1.330279275E0,-5.932459286E-1,7.154922044E-1,1.622810148E0
2.502290083E0,-6.887113720E-1,-3.921978968E-1,1.573863462E0,1.762154574E0
2.512211083E0,-2.808017144E-1,9.452608824E-3,2.165415745E0,2.183566876E0
2.522131083E0,-7.744929492E-3,8.197278866E-1,2.440062388E0,2.574085905E0
2.532052083E0,6.679566801E-2,2.046066472E0,3.269847193E0,3.857816783E0
2.541972083E0,-6.214333087E-2,3.516290668E0,4.473004199E0,5.689984923E0
2.551893083E0,-3.841597295E-1,5.324292725E0,5.760025481E0,7.853251891E0
2.561813083E0,-4.924755988E-1,6.999327636E0,6.972630419E0,9.891950997E0
2.571733083E0,-6.769280630E-1,8.101506736E0,8.252081310E0,1.158401869E1
2.581654083E0,-2.819878221E-2,8.689239618E0,1.131883424E1,1.426953709E1
2.591574083E0,1.843391745E0,9.070184548E0,1.710858462E1,1.945173537E1
2.601495083E0,5.483325296E0,8.221507974E0,2.467294859E1,2.657845823E1
2.611415083E0,1.026820185E1,5.212543078E0,3.173941863E1,3.376384560E1
2.621336083E0,1.469502357E1,2.428637513E0,3.654523816E1,3.946386233E1
2.631256083E0,1.668931821E1,3.868327841E-1,3.494516631E1,3.872786633E1
2.641177083E0,1.588946472E1,-1.087290335E0,2.909053639E1,3.316499053E1
2.651097083E0,1.269885665E1,-1.884832132E0,2.245013891E1,2.586159875E1
2.661018083E0,8.633773515E0,-1.887233583E0,1.679628250E1,1.897943101E1
2.670938083E0,5.027015018E0,-1.862064828E0,1.119557376E1,1.241285774E1
2.680858083E0,2.192012390E0,-1.742530198E0,5.531713344E0,6.200095349E0
2.690779083E0,1.027332401E0,-1.452626123E0,6.805363798E-1,1.904905321E0
2.700699083E0,1.702931392E0,-1.558551943E0,-3.091329945E0,3.858157632E0
2.710620083E0,3.020129569E0,-1.631035198E0,-6.141016604E0,7.035164772E0
2.720540083E0,3.777740145E0,-1.665548681E0,-8.887395909E0,9.799549941E0
2.730461083E0,3.861760249E0,-1.925083487E0,-1.127849547E1,1.207574423E1
2.740381083E0,3.284544462E0,-2.286340842E0,-1.328218190E1,1.387198410E1
2.750302083E0,1.927792794E0,-2.505855258E0,-1.477675478E1,1.511119378E1
2.760222083E0,3.718174267E-1,-2.798164293E0,-1.554246872E1,1.579671819E1
2.770142083E0,-1.242008831E0,-2.997608141E0,-1.576929976E1,1.609966010E1
2.780063083E0,-2.790224066E0,-3.007546946E0,-1.560359785E1,1.613390700E1
2.789983083E0,-4.059669203E0,-3.089729269E0,-1.502173558E1,1.586442185E1
2.799904083E0,-5.008549511E0,-3.332443683E0,-1.427067242E1,1.548686025E1
2.809824083E0,-5.726609813E0,-3.571033178E0,-1.375970296E1,1.532565703E1
2.819745083E0,-6.146168001E0,-3.697459628E0,-1.361621930E1,1.538986734E1
2.829665083E0,-6.335881498E0,-3.746815976E0,-1.353188140E1,1.540434480E1
2.839586083E0,-6.242007959E0,-3.824684224E0,-1.342415230E1,1.529047866E1
2.849506083E0,-6.065727271E0,-3.795520358E0,-1.326907245E1,1.507538742E1
2.859426083E0,-5.700243548E0,-3.590255022E0,-1.293785809E1,1.458666787E1
2.869347083E0,-5.110834855E0,-3.351357964E0,-1.245948568E1,1.387771654E1
2.879267083E0,-4.524122605E0,-2.970676158E0,-1.181599024E1,1.299654675E1
2.889188083E0,-4.024045041E0,-2.488360389E0,-1.099153751E1,1.196656896E1
2.899108083E0,-3.507830916E0,-2.137736195E0,-9.948929844E0,1.076364245E1
2.909029083E0,-2.899061507E0,-1.915303142E0,-8.527489260E0,9.208203779E0
2.918949083E0,-2.518931679E0,-1.721916132E0,-6.948328221E0,7.588759914E0
2.928870083E0,-2.335049610E0,-1.670384328E0,-5.364278909E0,6.084252518E0
2.938790083E0,-2.282668206E0,-1.720353756E0,-4.051904685E0,4.958641221E0
2.948711083E0,-2.266574330E0,-1.744006913E0,-3.034634172E0,4.169882956E0
2.958631083E0,-2.152546315E0,-1.611802829E0,-2.219280295E0,3.486627171E0
2.968551083E0,-1.766110557E0,-1.497148578E0,-1.416611953E0,2.714293608E0
2.978472083E0,-1.077430176E0,-1.371196629E0,-4.336721975E-1,1.796971773E0
2.988392083E0,-5.356239572E-1,-9.498491925E-1,2.164697707E-2,1.090676443E0
2.998313083E0,-2.695081097E-1,-3.602139196E-1,-9.384898067E-2,4.595610082E-1
3.008233083E0,7.513672113E-2,3.648636255E-1,1.768566388E-1,4.123702981E-1
3.018154083E0,3.036532179E-1,1.255218568E0,1.770885394E0,2.191760481E0
3.028074083E0,4.143120664E-1,1.981507364E0,4.530385265E0,4.962098001E0
3.037995083E0,4.395805165E-1,2.344405740E0,7.188596159E0,7.573993930E0
3.047915083E0,8.939603359E-2,3.223466493E0,9.205679153E0,9.754140482E0
3.057835083E0,1.496711791E-1,4.911375804E0,1.049784540E1,1.159089176E1
3.067756083E0,1.064128345E0,6.663054848E0,1.209000714E1,1.384546647E1
3.077676083E0,2.598043045E0,8.098275565E0,1.471918778E1,1.699959951E1
3.087597083E0,5.241833535E0,8.212753522E0,1.849258432E1,2.090219639E1
3.097517083E0,8.266888214E0,7.476562175E0,2.235320377E1,2.497811325E1
3.107438083E0,1.092270175E1,5.899224882E0,2.555667337E1,2.841214215E1
3.117358083E0,1.288618858E1,4.663107997E0,2.759690491E1,3.081213386E1
3.127279083E0,1.301439463E1,3.769962763E0,2.663773467E1,2.988571557E1
3.137199083E0,1.085393966E1,2.229325227E0,2.390932561E1,2.635211089E1
3.147119083E0,7.343461420E0,1.088428788E0,2.072757959E1,2.201689484E1
3.157040083E0,3.735586106E0,8.887101209E-1,1.644246865E1,1.688488035E1
3.166960083E0,1.151969311E0,9.699174213E-1,1.137604573E1,1.147528604E1
3.176881083E0,-2.428208327E-1,9.782842022E-1,6.525716032E0,6.603103184E0
3.186801083E0,-6.408223835E-1,4.185419422E-1,2.490104613E0,2.605081893E0
3.196722083E0,-3.877405643E-2,-5.083510816E-1,-3.535185653E-1,6.204027931E-1
3.206642083E0,1.145983517E0,-1.205218735E0,-2.210398375E0,2.766169083E0
3.216563083E0,1.837648902E0,-1.535560399E0,-4.458954509E0,5.061341180E0
3.226483083E0,1.451083336E0,-1.579767103E0,-7.498650616E0,7.799427416E0
3.236404083E0,2.720460936E-1,-1.526904473E0,-1.070189568E1,1.081369583E1
3.246324083E0,-1.103048289E0,-1.451244719E0,-1.327015301E1,1.339476718E1
3.256244083E0,-2.425508668E0,-1.567800484E0,-1.491590097E1,1.519293232E1
3.266165083E0,-3.735572072E0,-1.679650703E0,-1.614293684E1,1.665443289E1
3.276085083E0,-4.820855643E0,-1.752167579E0,-1.663252888E1,1.740550940E1
3.286006083E0,-5.562169152E0,-1.894752810E0,-1.628495635E1,1.731264328E1
3.295926083E0,-5.967731445E0,-2.141532792E0,-1.560764997E1,1.684632657E1
3.305847083E0,-6.018361316E0,-2.444551003E0,-1.475021427E1,1.611723685E1
3.315767083E0,-5.979919966E0,-2.528605897E0,-1.404965469E1,1.547727648E1
3.325688083E0,-5.880199796E0,-2.543371578E0,-1.361181050E1,1.504416411E1
3.335608083E0,-5.640474479E0,-2.571225667E0,-1.320207505E1,1.458495593E1
3.345528083E0,-5.277172353E0,-2.499682353E0,-1.260635370E1,1.389305991E1
3.355449083E0,-4.903641107E0,-2.320751414E0,-1.179405032E1,1.298195695E1
3.365369083E0,-4.539626497E0,-2.156789640E0,-1.068556675E1,1.180852603E1
3.375290083E0,-4.080459563E0,-2.136952668E0,-9.236631973E0,1.032143823E1
3.385210083E0,-3.671387771E0,-2.178200682E0,-7.644424626E0,8.755619581E0
3.395131083E0,-3.597961653E0,-2.087913825E0,-6.125545456E0,7.404526949E0
3.405051083E0,-3.791496305E0,-1.963785623E0,-4.910581752E0,6.507358246E0
3.414972083E0,-3.997524410E0,-1.892174626E0,-4.071701603E0,6.011595476E0
3.424892083E0,-4.060933955E0,-1.799631621E0,-3.351411173E0,5.564334229E0
3.434812083E0,-3.830255451E0,-1.624591713E0,-2.635518435E0,4.925049489E0
3.444733083E0,-3.537679198E0,-1.414300110E0,-1.910543801E0,4.262111745E0
3.454653083E0,-3.160177693E0,-1.334464859E0,-1.209264423E0,3.637284695E0
3.464577417E0,-2.587748437E0,-1.292976525E0,-6.408279383E-1,2.962919289E0
3.474497417E0,-2.129082316E0,-1.045357174E0,-2.871760565E-1,2.389190913E0
3.484418417E0,-1.703369641E0,-7.827889788E-1,-2.966959083E-1,1.897960796E0
3.494338417E0,-1.204747742E0,-4.184282139E-1,-2.360754848E-1,1.297008452E0
3.504259417E0,-7.094339043E-1,2.695861700E-1,2.726305228E-1,8.064121586E-1
3.514179417E0,-6.830220312E-2,1.112791212E0,1.754049506E0,2.078378970E0
3.524100417E0,7.256242597E-1,1.976023845E0,4.681318274E0,5.132829783E0
3.534020417E0,1.111963246E0,2.854361005E0,7.715204002E0,8.301097024E0
3.543940417E0,1.151380789E0,3.824415252E0,9.964127927E0,1.073478808E1
3.553861417E0,1.763991819E0,5.142329128E0,1.144563228E1,1.267113705E1
3.563781417E0,3.284669007E0,6.614680833E0,1.352662008E1,1.541144068E1
3.573702417E0,6.070626653E0,7.420080410E0,1.662331133E1,1.918969987E1
3.583622417E0,9.411330990E0,7.339505779E0,2.021315091E1,2.347366537E1
3.593543417E0,1.171766229E1,6.570095229E0,2.337598938E1,2.696120621E1
3.603463417E0,1.319520808E1,5.146474804E0,2.563324383E1,2.928588241E1
3.613384417E0,1.408621733E1,4.018372657E0,2.615927806E1,2.998127192E1
3.623304417E0,1.292244483E1,3.174894843E0,2.479506184E1,2.814008936E1
3.633224417E0,9.904538952E0,2.100496448E0,2.194544702E1,2.416846338E1
3.643145417E0,6.326135359E0,1.236059289E0,1.791491215E1,1.903922027E1
3.653065417E0,3.406206601E0,9.323490608E-1,1.312277043E1,1.358965128E1
3.662986417E0,1.675412349E0,7.983902273E-1,8.337472293E0,8.541538371E0
3.672906417E0,9.901818243E-1,2.712137425E-1,3.833006566E0,3.968117472E0
3.682827417E0,1.051256576E0,-5.480492905E-1,1.245544642E-1,1.192062175E0
3.692747417E0,1.490095666E0,-1.228682442E0,-2.846535092E0,3.439884833E0
3.702668417E0,1.642328510E0,-1.268082150E0,-5.947091943E0,6.298664768E0
3.712588417E0,1.426823530E0,-1.061530427E0,-9.175118095E0,9.345879536E0
3.722508417E0,8.502939141E-1,-7.889648080E-1,-1.207098848E1,1.212659178E1
3.732429417E0,-1.799080083E-1,-5.294221079E-1,-1.437759578E1,1.438846465E1
3.742349417E0,-1.478009179E0,-5.495429617E-1,-1.585381541E1,1.593204230E1
3.752270417E0,-2.697660304E0,-9.692561013E-1,-1.655306522E1,1.679942847E1
3.762190417E0,-3.861628394E0,-1.480916999E0,-1.669713945E1,1.720173697E1
3.772111417E0,-4.954259868E0,-1.877024345E0,-1.631242423E1,1.715118350E1
3.782031417E0,-5.806134869E0,-2.185787444E0,-1.547837856E1,1.667540320E1
3.791952417E0,-6.355935109E0,-2.384800645E0,-1.463823308E1,1.613576936E1
3.801872417E0,-6.606259089E0,-2.589609021E0,-1.415967590E1,1.583809192E1
3.811792417E0,-6.614142305E0,-2.599400184E0,-1.381472292E1,1.553545394E1
3.821713417E0,-6.457281389E0,-2.523876084E0,-1.345178858E1,1.513330927E1
3.831633417E0,-6.078356087E0,-2.416086757E0,-1.292948020E1,1.448983596E1
3.841554417E0,-5.557601892E0,-2.281137405E0,-1.222323127E1,1.361976172E1
3.851474417E0,-5.043926336E0,-2.151598189E0,-1.139174434E1,1.264287969E1
3.861395417E0,-4.646911502E0,-2.019985990E0,-1.048672867E1,1.164669945E1
3.871315417E0,-4.303854775E0,-1.965785809E0,-9.531645053E0,1.064141613E1
3.881236417E0,-4.053975476E0,-1.904282017E0,-8.408173317E0,9.526719566E0
3.891156417E0,-4.011814128E0,-1.840670743E0,-7.208306538E0,8.452360885E0
3.901077417E0,-4.095588064E0,-1.820850290E0,-6.024082232E0,7.508588689E0
3.910997417E0,-4.134398957E0,-1.821419224E0,-4.818732519E0,6.605377038E0
3.920917417E0,-4.116153306E0,-1.754583210E0,-3.601681359E0,5.743987194E0
3.930838417E0,-4.071114542E0,-1.654790096E0,-2.504925551E0,5.058355058E0
3.940758417E0,-3.788964753E0,-1.510794517E0,-1.446804051E0,4.328047589E0
3.950679417E0,-3.169347881E0,-1.420996634E0,-3.926569033E-1,3.495450882E0
3.960599417E0,-2.336949956E0,-1.252769170E0,4.073842853E-1,2.682671736E0
3.970520417E0,-1.612638103E0,-1.005505622E0,7.875585526E-1,2.057156213E0
3.980440417E0,-9.581621790E-1,-7.406048262E-1,1.085664225E0,1.626418482E0
3.990361417E0,-2.423346367E-1,-2.145578773E-1,1.541238338E0,1.574857699E0
4.000281417E0,6.355391318E-1,4.366504768E-1,2.481474123E0,2.598516394E0
4.010201417E0,1.718977321E0,1.229421968E0,4.202247709E0,4.703748209E0
4.020122417E0,2.730842668E0,2.084576965E0,6.701872759E0,7.531139441E0
4.030042417E0,3.754376718E0,2.595864957E0,1.019963506E1,1.117436418E1
4.039963417E0,5.245402676E0,2.743084399E0,1.369162032E1,1.491640802E1
4.049883417E0,7.478354346E0,3.041100316E0,1.687343651E1,1.870526489E1
4.059804417E0,1.041193928E1,3.793829928E0,1.995450517E1,2.282507178E1
4.069724417E0,1.332892104E1,3.845649415E0,2.303609775E1,2.689072247E1
4.079645417E0,1.507561650E1,3.397356547E0,2.501826877E1,2.940629213E1
4.089565417E0,1.553927263E1,2.892880416E0,2.524134239E1,2.978192601E1
4.099485417E0,1.459147991E1,2.737452360E0,2.352691069E1,2.781942591E1
4.109406417E0,1.208371086E1,2.916311671E0,2.096560570E1,2.437370641E1
4.119326417E0,9.089534739E0,2.627383204E0,1.812626912E1,2.044711267E1
4.129247417E0,6.218734871E0,2.192649298E0,1.503591391E1,1.641825452E1
4.139167417E0,4.083937194E0,2.124888108E0,1.194039677E1,1.279713904E1
4.149088417E0,3.096050987E0,1.990794643E0,9.052140040E0,9.771900242E0
4.159008417E0,2.930305519E0,1.594464665E0,6.420300089E0,7.235278933E0
4.168929417E0,2.852288752E0,9.920976645E-1,3.723263099E0,4.794006362E0
4.178849417E0,2.371945541E0,3.322430326E-1,8.882709950E-1,2.554512956E0
4.188769417E0,1.807099539E0,-3.456971835E-1,-2.000755813E0,2.718113153E0
4.198690417E0,1.118225322E0,-1.112249614E0,-4.705875410E0,4.963143202E0
4.208610417E0,-1.312898719E-1,-1.644670905E0,-7.286615374E0,7.471073753E0
4.218531417E0,-1.560918019E0,-1.789600284E0,-9.786310006E0,1.007030276E1
4.228451417E0,-2.694115429E0,-1.622267298E0,-1.174692761E1,1.216060514E1
4.238372417E0,-3.261395627E0,-1.679508323E0,-1.322311450E1,1.372254374E1
4.248292417E0,-3.614360169E0,-1.933579199E0,-1.452923630E1,1.509639147E1
4.258213417E0,-3.951630199E0,-2.091435895E0,-1.561194417E1,1.623952851E1
4.268133417E0,-4.179282477E0,-2.135033612E0,-1.620838940E1,1.687414168E1
4.278054417E0,-4.325534789E0,-2.193397595E0,-1.636419665E1,1.706775252E1
4.287974417E0,-4.361826118E0,-2.324882472E0,-1.613558221E1,1.687565166E1
4.297894417E0,-4.266246361E0,-2.417828642E0,-1.576498451E1,1.651004210E1
4.307815417E0,-4.112757828E0,-2.519528387E0,-1.544183229E1,1.617754570E1
4.317735417E0,-3.987128645E0,-2.552245313E0,-1.506897640E1,1.579510053E1
4.327656417E0,-3.878349969E0,-2.499965358E0,-1.446423163E1,1.518240501E1
4.337576417E0,-3.639587688E0,-2.488853894E0,-1.369767569E1,1.438983362E1
4.347497417E0,-3.347429804E0,-2.438966912E0,-1.279197239E1,1.344575783E1
4.357417417E0,-3.024382541E0,-2.288486186E0,-1.186236100E1,1.245390169E1
4.367338417E0,-2.757434635E0,-2.186728261E0,-1.089607353E1,1.145031199E1
4.377258417E0,-2.588318248E0,-2.199578687E0,-9.636398506E0,1.021751995E1
4.387178417E0,-2.425152134E0,-2.194105401E0,-7.859054278E0,8.512355463E0
4.397099417E0,-2.342528930E0,-2.153621618E0,-5.913994948E0,6.715717692E0
4.407019417E0,-2.352419203E0,-2.149396567E0,-4.212027762E0,5.281567909E0
4.416940417E0,-2.430434947E0,-2.124106189E0,-3.010062418E0,4.413537911E0
4.426860417E0,-2.326340914E0,-2.014115531E0,-2.108193138E0,3.730013637E0
4.436781417E0,-2.035749645E0,-1.679689295E0,-1.324050529E0,2.952751690E0
4.446701417E0,-1.586077857E0,-1.337580401E0,-7.487119907E-1,2.205750200E0
4.456619042E0,-1.207772214E0,-1.129811872E0,-3.717881906E-1,1.695115054E0
4.466539042E0,-7.477132863E-1,-1.015108066E0,2.412292206E-1,1.283631988E0
4.476459042E0,-3.691364783E-1,-8.811691131E-1,1.445421184E0,1.732617426E0
4.486380042E0,-9.945704520E-2,-5.888201711E-1,3.050961937E0,3.108853429E0
4.496300042E0,2.359120551E-1,-2.434068699E-1,4.841692781E0,4.853544106E0
4.506221042E0,2.404318066E-1,-3.102152556E-2,6.978786952E0,6.982996284E0
4.516141042E0,4.816760838E-2,6.702777323E-1,9.266208944E0,9.290544686E0
4.526062042E0,6.162509215E-1,1.698599482E0,1.133977896E1,1.148283904E1
4.535982042E0,1.269338863E0,2.745287337E0,1.411166792E1,1.443215144E1
4.545903042E0,2.048445265E0,3.136471327E0,1.675367851E1,1.716739130E1
4.555823042E0,3.149474072E0,2.738589936E0,1.872473983E1,1.918423685E1
4.565743042E0,4.408343350E0,2.464142683E0,2.008209844E1,2.070739404E1
4.575664042E0,4.992656195E0,2.673900435E0,2.000648458E1,2.079268585E1
4.585584042E0,5.039160855E0,2.977442848E0,1.974993215E1,2.059898366E1
4.595505042E0,5.042078615E0,3.408815336E0,1.997743562E1,2.088397741E1
4.605425042E0,4.719670453E0,3.417369812E0,2.012703546E1,2.095355010E1
4.615346042E0,3.875464953E0,2.899670202E0,1.927583640E1,1.987423419E1
4.625266042E0,2.453822055E0,2.065283639E0,1.696250481E1,1.726305907E1
4.635187042E0,1.017522674E0,1.687260854E0,1.312008539E1,1.326720929E1
4.645107042E0,1.308608325E-1,1.539162722E0,8.848851063E0,8.982667287E0
4.655028042E0,8.954652630E-2,1.220954323E0,4.981873344E0,5.130088699E0
4.664948042E0,5.394039629E-1,1.053647795E0,1.655466619E0,2.035116714E0
4.674868042E0,1.236834776E0,9.623338750E-1,-1.117541490E0,1.924771605E0
4.684789042E0,1.868045068E0,7.319221495E-1,-3.654899792E0,4.169363848E0
4.694709042E0,2.108263012E0,3.992420375E-1,-6.046288787E0,6.415744324E0
4.704630042E0,1.921126969E0,2.245516460E-1,-7.702898537E0,7.942027332E0
4.714550042E0,1.349921388E0,2.484844458E-1,-8.548224657E0,8.657723549E0
4.724471042E0,6.149170254E-1,-2.598078713E-2,-9.253909911E0,9.274354241E0
4.734391042E0,-1.285424115E-1,-5.510911582E-1,-1.014874908E1,1.016451340E1
4.744312042E0,-8.231599098E-1,-8.107708293E-1,-1.133492344E1,1.139365749E1
4.754232042E0,-1.442788914E0,-8.218869710E-1,-1.250710540E1,1.261684682E1
4.764152042E0,-1.786368821E0,-8.479580976E-1,-1.313986886E1,1.328782526E1
4.774073042E0,-1.957805529E0,-8.686962712E-1,-1.345987996E1,1.362923344E1
4.783993042E0,-1.916198935E0,-8.193011861E-1,-1.360744380E1,1.376610328E1
4.793914042E0,-1.690332981E0,-7.925465199E-1,-1.344417083E1,1.357317519E1
4.803834042E0,-1.412112667E0,-8.312575726E-1,-1.293562679E1,1.303899888E1
4.813755042E0,-1.223863532E0,-1.032393459E0,-1.236009705E1,1.246337343E1
4.823675042E0,-1.127905095E0,-1.230102438E0,-1.180585702E1,1.192323705E1
4.833596042E0,-1.083411073E0,-1.328404366E0,-1.117189839E1,1.130264355E1
4.843516042E0,-1.054032104E0,-1.363367646E0,-1.032734527E1,1.047013922E1
4.853436042E0,-1.035524204E0,-1.330289947E0,-9.413021420E0,9.562790072E0
4.863357042E0,-1.020452567E0,-1.282672561E0,-8.378759483E0,8.537574762E0
4.873277042E0,-1.124048126E0,-1.370610592E0,-7.226940445E0,7.441150837E0
4.883198042E0,-1.358198999E0,-1.516940672E0,-6.126203853E0,6.455709657E0
4.893118042E0,-1.573417904E0,-1.677888791E0,-5.129312641E0,5.621459140E0
4.903039042E0,-1.691074408E0,-1.777044997E0,-4.322765256E0,4.970303917E0
4.912959042E0,-1.549140557E0,-1.822982331E0,-3.520907337E0,4.256746354E0
4.922880042E0,-1.431392983E0,-1.815765697E0,-2.962786510E0,3.758190368E0
4.932800042E0,-1.153770692E0,-1.766439609E0,-2.734794216E0,3.454069355E0
4.942721042E0,-5.569689621E-1,-1.489712527E0,-2.932985006E0,3.336444048E0
4.952641042E0,1.327616527E-1,-8.616174857E-1,-3.387296121E0,3.497682855E0
4.962561042E0,8.542216350E-1,-2.083935964E-1,-3.325285814E0,3.439570938E0
4.972482042E0,1.311925304E0,5.247399500E-1,-1.844209478E0,2.323275407E0
4.982402042E0,1.016373111E0,1.038036314E0,1.582619668E0,2.148306008E0
4.992323042E0,3.472598884E-1,7.867963681E-1,5.656756051E0,5.721759081E0
5.002243042E0,-7.087110423E-1,4.648782027E-1,9.612620804E0,9.649915119E0
5.012164042E0,-1.568992585E0,1.056643032E0,1.201256778E1,1.216059279E1
5.022084042E0,-1.527829357E0,2.752523266E0,1.275099043E1,1.313386477E1
5.032005042E0,-5.321973061E-1,4.864757708E0,1.301909462E1,1.390848397E1
5.041925042E0,1.109484758E0,6.276081439E0,1.409857249E1,1.547222999E1
5.051845042E0,2.661878852E0,6.593878194E0,1.631858018E1,1.780058673E1
5.061766042E0,3.030040015E0,6.144375830E0,1.791042617E1,1.917597096E1
5.071686042E0,3.073141011E0,4.549069166E0,1.930579402E1,2.007117108E1
5.081607042E0,3.344318208E0,3.053183002E0,2.070329259E1,2.119275147E1
5.091527042E0,3.866226937E0,2.228977025E0,2.118749584E1,2.165239085E1
5.101448042E0,3.667298228E0,1.426924102E0,2.062059425E1,2.099271531E1
5.111368042E0,2.704075284E0,6.799604291E-1,1.936679919E1,1.956648359E1
5.121289042E0,1.647945930E0,-1.318137825E-2,1.714131383E1,1.722035247E1
5.131209042E0,8.612347855E-1,-3.945683581E-1,1.355062991E1,1.358370276E1
5.141129042E0,5.018131636E-1,-3.208299986E-1,9.380280520E0,9.399170760E0
5.151050042E0,8.436921152E-1,-3.796594200E-1,5.560032579E0,5.636481167E0
5.160970042E0,1.540925658E0,-6.121546546E-1,2.028119028E0,2.619628217E0
5.170891042E0,2.262166406E0,-9.085845146E-1,-1.397289829E0,2.809865039E0
5.180811042E0,2.625601849E0,-1.142754392E0,-4.388482697E0,5.240081398E0
5.190732042E0,2.421497624E0,-1.327240478E0,-7.006236121E0,7.530774370E0
5.200652042E0,1.863783178E0,-1.513871907E0,-9.294693655E0,9.599834688E0
5.210573042E0,1.000378857E0,-1.741441154E0,-1.118939559E1,1.136819902E1
5.220493042E0,-1.526313320E-2,-1.827581751E0,-1.263939281E1,1.277084722E1
5.230414042E0,-9.068256721E-1,-1.871957732E0,-1.357498357E1,1.373341681E1
5.240334042E0,-1.493438227E0,-1.885556017E0,-1.429152827E1,1.449253116E1
5.250254042E0,-1.790491985E0,-1.914928920E0,-1.473437299E1,1.496577969E1
5.260175042E0,-1.799529734E0,-1.919718959E0,-1.479108046E1,1.502330488E1
5.270095042E0,-1.723419013E0,-1.914330750E0,-1.458448547E1,1.481020093E1
5.280016042E0,-1.587953205E0,-1.943746338E0,-1.427767037E1,1.449660706E1
5.289936042E0,-1.414049411E0,-2.055150999E0,-1.371239197E1,1.393746300E1
5.299857042E0,-1.335621292E0,-2.148287496E0,-1.292671329E1,1.317189963E1
5.309777042E0,-1.356944625E0,-2.186102609E0,-1.197586715E1,1.224915251E1
5.319698042E0,-1.414798000E0,-2.214034173E0,-1.091738312E1,1.122910749E1
5.329618042E0,-1.500619192E0,-2.268777268E0,-9.872880957E0,1.024075127E1
5.339538042E0,-1.547891738E0,-2.293621503E0,-8.816722367E0,9.240739242E0
5.349459042E0,-1.658901858E0,-2.278519022E0,-7.778812353E0,8.273664601E0
5.359379042E0,-1.806696081E0,-2.202981182E0,-6.926527462E0,7.489596751E0
5.369300042E0,-1.947900200E0,-2.118417580E0,-6.174719955E0,6.812427963E0
5.379220042E0,-2.016725875E0,-2.036023002E0,-5.403971563E0,6.116819563E0
5.389141042E0,-2.068475049E0,-1.899207219E0,-4.674638999E0,5.453240033E0
5.399061042E0,-2.027124709E0,-1.712210046E0,-4.226023073E0,4.990006898E0
5.408982042E0,-1.833335703E0,-1.463608364E0,-4.152752198E0,4.769551348E0
5.418902042E0,-1.497244618E0,-1.076759500E0,-4.056518138E0,4.456062373E0
5.428822042E0,-1.077503997E0,-8.417455772E-1,-4.042380740E0,4.267363651E0
5.438743042E0,-6.859492935E-1,-5.741419056E-1,-3.930946258E0,4.031439426E0
5.448663042E0,-1.198114952E-1,-9.361158371E-2,-3.533538492E0,3.536808194E0
5.458583667E0,4.371148553E-1,6.047512025E-1,-2.436721873E0,2.548412624E0
5.468503667E0,6.709041153E-1,1.353006233E0,-6.321921855E-1,1.637194295E0
5.478424667E0,7.195247367E-1,1.979000663E0,2.004629593E0,2.907352623E0
5.488344667E0,1.403391691E-1,2.656498244E0,5.897871251E0,6.470051259E0
5.498265667E0,-9.661257944E-1,3.124965468E0,9.266415936E0,9.826763074E0
5.508185667E0,-2.478212546E0,4.381638239E0,1.111112944E1,1.219825760E1
5.518106667E0,-3.584228882E0,6.697639375E0,1.165520117E1,1.391218114E1
5.528026667E0,-3.451758749E0,8.800984586E0,1.229174076E1,1.550673592E1
5.537946667E0,-2.756927097E0,9.348569316E0,1.457051062E1,1.752986523E1
5.547867667E0,-1.845853130E0,8.247315245E0,1.843383617E1,2.027884855E1
5.557787667E0,-6.794181729E-1,6.151080247E0,2.179923388E1,2.266062654E1
5.567708667E0,7.350422238E-1,3.825909508E0,2.473715569E1,2.504205947E1
5.577628667E0,2.516430825E0,2.190561988E0,2.754219134E1,2.774352699E1
5.587549667E0,3.615481080E0,3.461019570E-1,2.842999047E1,2.866105106E1
5.597469667E0,3.162047048E0,-9.870070785E-1,2.597084803E1,2.618124657E1
5.607390667E0,1.774090983E0,-9.616786945E-1,2.118204390E1,2.127795123E1
5.617310667E0,5.280552116E-1,-5.648269987E-1,1.561301889E1,1.563215374E1
5.627230667E0,-5.552183423E-2,-3.841515434E-1,9.881946480E0,9.889566286E0
5.637151667E0,4.268320880E-1,1.322935465E-1,5.036857052E0,5.056640799E0
5.647071667E0,2.175676439E0,2.735862502E-1,1.477760965E0,2.644275869E0
5.656992667E0,3.987092392E0,-1.634150594E-1,-1.396029169E0,4.227588872E0
5.666912667E0,4.931238796E0,-4.456335542E-1,-4.212820060E0,6.501042853E0
5.676833667E0,5.110984544E0,-6.431288177E-1,-7.101500713E0,8.773088969E0
5.686753667E0,4.528032930E0,-8.685603234E-1,-9.659216096E0,1.070317405E1
5.696674667E0,3.351396555E0,-1.102480524E0,-1.170047733E1,1.222082206E1
5.706594667E0,1.853907231E0,-1.196727993E0,-1.328905004E1,1.347100520E1
5.716514667E0,5.763928278E-1,-1.167217095E0,-1.437420790E1,1.443303423E1
5.726435667E0,-2.557759603E-1,-1.203466324E0,-1.506994236E1,1.512008318E1
5.736355667E0,-9.090183780E-1,-1.324575901E0,-1.544635921E1,1.552967574E1
5.746276667E0,-1.362435453E0,-1.547410951E0,-1.535669683E1,1.549447801E1
5.756196667E0,-1.641398657E0,-1.723302507E0,-1.520571705E1,1.539083468E1
5.766117667E0,-1.705227448E0,-1.811609496E0,-1.490454919E1,1.511076822E1
5.776037667E0,-1.592051957E0,-1.895700644E0,-1.425846227E1,1.447176757E1
5.785958667E0,-1.464099822E0,-1.977851392E0,-1.339541908E1,1.361957183E1
5.795878667E0,-1.308548245E0,-1.978371502E0,-1.244609555E1,1.267010445E1
5.805798667E0,-1.171660541E0,-1.951821927E0,-1.154176986E1,1.176413400E1
5.815719667E0,-1.181243396E0,-1.912656692E0,-1.036993405E1,1.061080222E1
5.825639667E0,-1.248517513E0,-1.877712269E0,-9.013788738E0,9.291554593E0
5.835560667E0,-1.298773600E0,-1.854505840E0,-7.849261946E0,8.169266667E0
5.845480667E0,-1.431074310E0,-1.724236307E0,-7.033101153E0,7.381427799E0
5.855401667E0,-1.550495211E0,-1.616085622E0,-6.626041973E0,6.994297704E0
5.865321667E0,-1.611702110E0,-1.568097815E0,-6.442488518E0,6.823648054E0
5.875242667E0,-1.690966527E0,-1.465079377E0,-6.319211086E0,6.703600087E0
5.885162667E0,-1.703783478E0,-1.344942192E0,-5.979125914E0,6.360950741E0
5.895083667E0,-1.620769095E0,-1.340485590E0,-5.439768802E0,5.832227593E0
5.905003667E0,-1.539869505E0,-1.485188829E0,-4.931092030E0,5.375188607E0
5.914923667E0,-1.318330344E0,-1.505594588E0,-4.365186805E0,4.802048084E0
5.924844667E0,-1.069797147E0,-1.403231915E0,-4.033011162E0,4.402125029E0
5.934764667E0,-8.709414558E-1,-1.287375915E0,-3.898691263E0,4.197102492E0
5.944685667E0,-5.278884564E-1,-1.134046426E0,-3.643966668E0,3.852690047E0
5.954605667E0,-1.330780236E-1,-7.905713305E-1,-2.969868658E0,3.076171749E0
5.964526667E0,2.207416733E-1,-1.642705071E-1,-1.920080609E0,1.939696170E0
5.974446667E0,3.760648807E-1,6.992316824E-1,-1.691342211E-1,8.117611255E-1
5.984367667E0,1.946119467E-1,1.287107528E0,3.026417665E0,3.294498973E0
5.994287667E0,-7.214394075E-1,1.167453031E0,6.871333255E0,7.007042321E0
6.004207667E0,-1.894042081E0,1.174203933E0,1.035683044E1,1.059387026E1
6.014128667E0,-2.817155465E0,2.381418031E0,1.261081162E1,1.313925745E1
6.024048667E0,-2.732815518E0,4.628637199E0,1.384599617E1,1.485274967E1
6.033969667E0,-1.841574869E0,7.037868388E0,1.559602805E1,1.720927309E1
6.043889667E0,-1.132242048E0,8.390328199E0,1.910103622E1,2.089328036E1
6.053810667E0,-6.216802074E-1,7.630172623E0,2.298100295E1,2.422256215E1
6.063730667E0,-4.923352656E-1,6.483228409E0,2.513566683E1,2.596298118E1
6.073651667E0,-9.182182409E-2,5.306209041E0,2.608653402E1,2.662088547E1
6.083571667E0,1.049381667E0,4.432144149E0,2.540895400E1,2.581395062E1
6.093491667E0,1.948422502E0,3.920658959E0,2.333350585E1,2.374069106E1
6.103412667E0,2.247555968E0,3.028053131E0,2.074510720E1,2.108506785E1
6.113332667E0,2.163415997E0,1.995580150E0,1.771071569E1,1.795361131E1
6.123253667E0,1.809482718E0,1.164108423E0,1.363986076E1,1.380851830E1
6.133173667E0,1.101157153E0,5.830735275E-1,9.122368024E0,9.207069033E0
6.143094667E0,1.009470546E0,-1.140037483E-1,5.295955948E0,5.392511200E0
6.153014667E0,1.631899124E0,-5.420629111E-1,2.069529009E0,2.690702004E0
6.162935667E0,2.711679003E0,-8.255251086E-1,-1.016617963E0,3.011346344E0
6.172855667E0,3.554699566E0,-1.339118511E0,-3.917066723E0,5.456421822E0
6.182775667E0,3.884980127E0,-1.753701012E0,-6.520983880E0,7.790492192E0
6.192696667E0,3.718669818E0,-1.790428542E0,-8.904061058E0,9.814094095E0
6.202616667E0,3.071881813E0,-1.738411712E0,-1.095433285E1,1.150895049E1
6.212537667E0,1.980808622E0,-1.692311679E0,-1.242590863E1,1.269609101E1
6.222457667E0,8.384587111E-1,-1.646359873E0,-1.325970638E1,1.338780516E1
6.232378667E0,1.865702892E-1,-1.683131551E0,-1.378097513E1,1.388463236E1
6.242298667E0,-2.268168573E-1,-1.685916872E0,-1.443331974E1,1.453321989E1
6.252219667E0,-4.883718035E-1,-1.527852307E0,-1.503423926E1,1.511956315E1
6.262139667E0,-3.439598295E-1,-1.163773963E0,-1.532966399E1,1.537762258E1
6.272060667E0,2.069871949E-1,-8.574260554E-1,-1.496291025E1,1.498888609E1
6.281980667E0,7.513881151E-1,-7.200772986E-1,-1.409665461E1,1.413501915E1
6.291900667E0,1.048486677E0,-7.805696681E-1,-1.302313739E1,1.308857214E1
6.301821667E0,1.060115254E0,-8.554640222E-1,-1.183789625E1,1.191601656E1
6.311741667E0,7.870164426E-1,-1.022121801E0,-1.044750672E1,1.052684780E1
6.321662667E0,3.644005991E-1,-1.414587501E0,-9.024135970E0,9.141601370E0
6.331582667E0,2.847564787E-2,-1.689998959E0,-7.858647897E0,8.038361407E0
6.341503667E0,-2.317297610E-1,-1.698651377E0,-6.952335902E0,7.160592830E0
6.351423667E0,-4.569334446E-1,-1.700606101E0,-6.435503435E0,6.672072672E0
6.361344667E0,-5.373582414E-1,-1.712795353E0,-6.223158290E0,6.476891299E0
6.371264667E0,-3.413565029E-1,-1.566815959E0,-6.150494941E0,6.356101362E0
6.381184667E0,4.639758311E-2,-1.270510645E0,-6.151946805E0,6.281942337E0
6.391105667E0,4.359827247E-1,-1.051721430E0,-6.227422079E0,6.330638566E0
6.401025667E0,7.001575890E-1,-8.492534021E-1,-6.428167518E0,6.521716770E0
6.410946667E0,7.374101269E-1,-6.167343400E-1,-6.527332787E0,6.597742663E0
6.420866667E0,5.787881032E-1,-6.773891160E-1,-6.251612011E0,6.314784590E0
6.430787667E0,4.797558582E-1,-8.372689489E-1,-5.774499094E0,5.854572979E0
6.440707667E0,2.098840517E-1,-9.252938104E-1,-5.347049503E0,5.430576244E0
6.450628667E0,1.653116038E-1,-9.416028643E-1,-5.069734776E0,5.159084665E0
6.460549042E0,4.990494040E-1,-7.001380008E-1,-4.631275463E0,4.710409318E0
6.470469042E0,9.487670922E-1,-5.082312137E-2,-3.373818288E0,3.505052329E0
6.480390042E0,8.325145778E-1,9.045693778E-1,-1.363206993E0,1.835663256E0
6.490310042E0,3.751869578E-1,1.614334819E0,1.605446028E0,2.307444281E0
6.500231042E0,-6.657421202E-1,2.303285488E0,6.051430829E0,6.509082246E0
6.510151042E0,-2.173124714E0,2.787130597E0,1.051536483E1,1.109339738E1
6.520072042E0,-3.351809953E0,3.983250772E0,1.374918732E1,1.470173693E1
6.529992042E0,-3.615376707E0,6.184708754E0,1.594057406E1,1.747636897E1
6.539913042E0,-3.751199048E0,7.750282034E0,1.777648751E1,1.975200937E1
6.549833042E0,-4.169251871E0,8.165140815E0,2.034237672E1,2.231287691E1
6.559754042E0,-4.550696154E0,7.741421163E0,2.364552029E1,2.529326130E1
6.569674042E0,-4.301063315E0,6.504306452E0,2.532198485E1,2.649543479E1
6.579594042E0,-3.614016937E0,4.798742643E0,2.570550840E1,2.639814788E1
6.589515042E0,-2.697885129E0,3.851768819E0,2.494890442E1,2.538823624E1
6.599435042E0,-1.371931331E0,3.023384422E0,2.299092918E1,2.322941828E1
6.609356042E0,-4.503480911E-1,1.913634346E0,2.093928388E1,2.103136751E1
6.619276042E0,-4.666181879E-1,4.787746954E-1,1.858499371E1,1.859701452E1
6.629197042E0,-5.239743302E-1,-8.316769642E-1,1.515726234E1,1.518910259E1
6.639117042E0,-2.077471867E-2,-1.704189128E0,1.124476873E1,1.137319286E1
6.649038042E0,8.520347033E-1,-1.993503512E0,7.445948492E0,7.755138189E0
6.658958042E0,2.161501326E0,-1.992898032E0,3.855332989E0,4.848435109E0
6.668878042E0,3.568769136E0,-2.131157201E0,5.873762012E-2,4.157089639E0
6.678799042E0,4.533271451E0,-2.055935987E0,-3.755636208E0,6.235561415E0
6.688719042E0,5.114563040E0,-2.056273956E0,-7.394742086E0,9.223298119E0
6.698640042E0,5.237529400E0,-2.120917557E0,-1.035408926E1,1.179564199E1
6.708560042E0,4.662892235E0,-2.225405254E0,-1.271855943E1,1.372795493E1
6.718481042E0,3.577088555E0,-2.327632710E0,-1.457649116E1,1.518840120E1
6.728401042E0,2.543077464E0,-2.247574680E0,-1.578430138E1,1.614506131E1
6.738322042E0,1.909326118E0,-2.277840745E0,-1.626892329E1,1.653819669E1
6.748242042E0,1.493693312E0,-2.469453125E0,-1.627699478E1,1.653087649E1
6.758162042E0,1.188802677E0,-2.631037129E0,-1.631924910E1,1.657267327E1
6.768083042E0,9.432235663E-1,-2.744842949E0,-1.624209158E1,1.649937491E1
6.778003042E0,8.698127970E-1,-2.811121430E0,-1.595532425E1,1.622440599E1
6.787924042E0,9.605621687E-1,-2.751111749E0,-1.534090000E1,1.561520119E1
6.797844042E0,1.010892808E0,-2.713660917E0,-1.436294616E1,1.465196513E1
6.807765042E0,9.765719913E-1,-2.744000072E0,-1.323005398E1,1.354686523E1
6.817685042E0,9.599226294E-1,-2.772449408E0,-1.200664572E1,1.235991378E1
6.827606042E0,9.036304611E-1,-2.748523479E0,-1.074853074E1,1.113112044E1
6.837526042E0,7.830564889E-1,-2.749274846E0,-9.389051344E0,9.814579705E0
6.847447042E0,6.263845848E-1,-2.732202730E0,-7.915719060E0,8.397374450E0
6.857367042E0,3.360596564E-1,-2.709771057E0,-6.531161544E0,7.078973540E0
6.867287042E0,1.846579939E-1,-2.690581080E0,-5.656315756E0,6.266357239E0
6.877208042E0,2.923470417E-1,-2.602207724E0,-5.275336327E0,5.889492779E0
6.887128042E0,3.786588152E-1,-2.263333072E0,-5.414029943E0,5.880287350E0
6.897049042E0,4.776419435E-1,-1.929124790E0,-5.627117684E0,5.967756506E0
6.906969042E0,7.248326929E-1,-1.714666900E0,-5.617536437E0,5.917954092E0
6.916890042E0,8.877485463E-1,-1.587920607E0,-5.596715671E0,5.884965220E0
6.926810042E0,9.338725528E-1,-1.465541161E0,-5.529556307E0,5.796198909E0
6.936731042E0,9.571880329E-1,-1.494518208E0,-4.994420300E0,5.300379961E0
6.946651042E0,8.572692038E-1,-1.762491569E0,-4.247867101E0,4.678211402E0
6.956571042E0,6.720756049E-1,-1.901502397E0,-3.539018503E0,4.073333886E0
6.966492042E0,5.478186178E-1,-1.846740153E0,-2.879928541E0,3.464757254E0
6.976412042E0,5.176844072E-1,-1.464898698E0,-2.266235191E0,2.747680346E0
6.986333042E0,4.617579822E-1,-7.074473128E-1,-1.094225133E0,1.382400368E0
6.996253042E0,4.858103576E-1,2.121159339E-1,1.239918451E0,1.348481605E0
7.006174042E0,3.559863827E-1,1.205509341E0,4.469660177E0,4.643042232E0
7.016094042E0,-3.234206074E-1,2.295131546E0,7.546387285E0,7.894313824E0
7.026015042E0,-1.486472585E0,4.164648066E0,1.023667133E1,1.115093423E1
7.035935042E0,-2.452205300E0,5.864631000E0,1.395499996E1,1.533457634E1
7.045856042E0,-2.981791715E0,6.183365064E0,1.839217359E1,1.963153419E1
7.055776042E0,-3.565042706E0,6.013446146E0,2.249048236E1,2.355191841E1
7.065696042E0,-3.560499127E0,5.376736987E0,2.584696892E1,2.663929911E1
7.075617042E0,-3.102838435E0,4.020941924E0,2.746865910E1,2.793425877E1
7.085537042E0,-2.425741679E0,3.411805894E0,2.756743260E1,2.788347149E1
7.095458042E0,-1.522584550E0,3.652741000E0,2.668721849E1,2.697903651E1
7.105378042E0,-9.149253814E-1,3.224245343E0,2.520609070E1,2.542793453E1
7.115299042E0,-8.099557275E-1,2.410232232E0,2.291613160E1,2.305676333E1
7.125219042E0,-9.002617340E-1,2.029543702E0,1.959215907E1,1.971756110E1
7.135140042E0,-8.342780980E-1,2.037048604E0,1.546581523E1,1.562168454E1
7.145060042E0,-2.775763902E-1,2.152555963E0,1.114416855E1,1.135354740E1
7.154980042E0,9.129018062E-1,2.263487000E0,7.049177488E0,7.459736347E0
7.164901042E0,2.430102971E0,1.934669412E0,3.331095607E0,4.554617891E0
7.174821042E0,3.591520067E0,1.027973548E0,2.435540736E-2,3.735818411E0
7.184742042E0,4.188045115E0,6.140570462E-2,-3.185166646E0,5.262012838E0
7.194662042E0,4.252538441E0,-4.355044225E-1,-6.274244828E0,7.592094274E0
7.204583042E0,3.740917597E0,-7.383238274E-1,-8.927769179E0,9.707968328E0
7.214503042E0,2.671289069E0,-9.540053934E-1,-1.112634858E1,1.148222732E1
7.224424042E0,1.285621166E0,-1.240188300E0,-1.262659910E1,1.275232895E1
7.234344042E0,-1.154627017E-1,-1.629856107E0,-1.310864122E1,1.321008089E1
7.244265042E0,-1.113426512E0,-2.082634959E0,-1.327803272E1,1.348640945E1
7.254185042E0,-1.559083455E0,-2.297050895E0,-1.355245658E1,1.383388100E1
7.264105042E0,-1.463209291E0,-2.399763085E0,-1.391107568E1,1.419217639E1
7.274026042E0,-1.139316521E0,-2.192335449E0,-1.439934742E1,1.460977696E1
7.283946042E0,-7.855789778E-1,-1.873227455E0,-1.477298333E1,1.491198015E1
7.293867042E0,-3.821445597E-1,-1.664475717E0,-1.479312231E1,1.489137272E1
7.303787042E0,6.311396867E-2,-1.593440233E0,-1.428738493E1,1.437610529E1
7.313708042E0,2.725512931E-1,-1.590959259E0,-1.345766854E1,1.355412403E1
7.323628042E0,3.058123753E-1,-1.752728035E0,-1.242062742E1,1.254741258E1
7.333549042E0,2.156521837E-1,-2.030260571E0,-1.109686925E1,1.128312772E1
7.343469042E0,-5.283880278E-2,-2.416577046E0,-9.641834078E0,9.940201253E0
7.353389042E0,-3.522824639E-1,-2.828294995E0,-8.346921394E0,8.820116341E0
7.363310042E0,-6.094139184E-1,-3.012219748E0,-7.306991751E0,7.926978087E0
7.373230042E0,-8.183092059E-1,-3.036747356E0,-6.576327192E0,7.289687496E0
7.383151042E0,-8.934091627E-1,-3.110095706E0,-6.133778921E0,6.934992364E0
7.393071042E0,-8.187413152E-1,-3.046489694E0,-5.970245748E0,6.752427051E0
7.402992042E0,-6.536500783E-1,-2.786576573E0,-5.897110528E0,6.555011824E0
7.412912042E0,-4.387722851E-1,-2.535415564E0,-5.877602463E0,6.416156475E0
7.422833042E0,-3.844873197E-1,-2.266374355E0,-5.850038103E0,6.285477629E0
7.432753042E0,-2.373324899E-1,-2.085507988E0,-5.889117385E0,6.251989591E0
7.442673042E0,1.071000870E-1,-1.945080087E0,-5.600454381E0,5.929578084E0
7.452594042E0,3.449901089E-1,-1.898056341E0,-5.030201751E0,5.387445193E0
7.462514292E0,4.626322871E-1,-1.838709879E0,-4.587262301E0,4.963653702E0
7.472435292E0,6.824341667E-1,-1.478034176E0,-4.469933826E0,4.757164053E0
7.482355292E0,9.258991434E-1,-8.709246451E-1,-4.151331325E0,4.341583896E0
7.492276292E0,1.060251348E0,-1.391081840E-1,-2.976441513E0,3.162702655E0
7.502196292E0,9.939438497E-1,8.761564413E-1,-7.774335140E-1,1.536221779E0
7.512117292E0,3.005329974E-1,1.981141621E0,2.153695586E0,2.941708157E0
7.522037292E0,-1.580933769E0,3.194536809E0,5.770903641E0,6.782900990E0
7.531958292E0,-4.343595961E0,4.667654500E0,9.202029905E0,1.119514086E1
7.541878292E0,-6.631006259E0,6.936891067E0,1.164827572E1,1.509215124E1
7.551798292E0,-7.551420568E0,9.553800738E0,1.375792306E1,1.837333688E1
7.561719292E0,-7.484367038E0,1.045352467E1,1.679194503E1,2.114855423E1
7.571639292E0,-7.071624949E0,9.196652806E0,2.081735072E1,2.383166787E1
7.581560292E0,-6.331174489E0,7.653408873E0,2.422324859E1,2.618060752E1
7.591480292E0,-4.174814035E0,5.278202047E0,2.683190199E1,2.766296176E1
7.601401292E0,-1.780562536E0,2.621299468E0,2.936503510E1,2.953551929E1
7.611321292E0,1.185272274E-1,1.130834258E0,2.999158062E1,3.001312618E1
7.621242292E0,1.018457863E0,2.440975723E-1,2.762104923E1,2.764089725E1
7.631162292E0,6.170037505E-1,-3.586082742E-1,2.347146973E1,2.348231643E1
7.641082292E0,-2.268199271E-1,-7.375350380E-1,1.857640883E1,1.859242777E1
7.651003292E0,-6.435498172E-1,-1.221810209E0,1.325817324E1,1.332989625E1
7.660923292E0,-2.587901634E-1,-1.415620850E0,8.417408409E0,8.539538574E0
7.670844292E0,1.038937297E0,-1.582683402E0,4.698498563E0,5.065586462E0
7.680764292E0,2.675006728E0,-1.678239770E0,1.694865158E0,3.583952794E0
7.690685292E0,4.415627811E0,-1.930193076E0,-1.234639585E0,4.974710965E0
7.700605292E0,5.426133095E0,-2.198641086E0,-4.177314597E0,7.192141561E0
7.710526292E0,5.686671576E0,-2.529336214E0,-6.795200168E0,9.214690479E0
7.720446292E0,5.389928305E0,-2.944604593E0,-9.018557727E0,1.091129721E1
7.730367292E0,4.551326483E0,-3.195318874E0,-1.098002084E1,1.230794430E1
7.740287292E0,3.327905366E0,-3.328719299E0,-1.278280396E1,1.362187224E1
7.750207292E0,2.285327520E0,-3.369390777E0,-1.415973437E1,1.473341758E1
7.760128292E0,1.515248049E0,-3.162097042E0,-1.474967867E1,1.516073399E1
7.770048292E0,8.231891459E-1,-3.105431090E0,-1.461638203E1,1.496529205E1
7.779969292E0,3.049812667E-1,-3.293097476E0,-1.407526432E1,1.445858120E1
7.789889292E0,-1.466101617E-2,-3.424737889E0,-1.354511950E1,1.397137455E1
7.799810292E0,6.858798578E-2,-3.494791625E0,-1.316933064E1,1.362532724E1
7.809730292E0,3.694937432E-1,-3.364180323E0,-1.318813880E1,1.361547795E1
7.819651292E0,7.313311422E-1,-3.196121697E0,-1.323691159E1,1.363693029E1
7.829571292E0,1.203278044E0,-3.047069153E0,-1.298317284E1,1.339011895E1
7.839491292E0,1.632716565E0,-2.897017321E0,-1.247645430E1,1.291202481E1
7.849412292E0,1.935930364E0,-2.867985310E0,-1.199250950E1,1.248172464E1
7.859332292E0,1.924270139E0,-2.807237710E0,-1.158682383E1,1.207633576E1
7.869253292E0,1.612689559E0,-2.884066030E0,-1.110678613E1,1.158789466E1
7.879173292E0,1.199475746E0,-3.074105509E0,-1.031743190E1,1.083227897E1
7.889094292E0,7.301622838E-1,-3.204561861E0,-9.228607839E0,9.796405276E0
7.899014292E0,1.884607306E-1,-3.331960410E0,-8.194787368E0,8.848277664E0
7.908935292E0,-2.625212717E-1,-3.385781984E0,-7.412096037E0,8.153012003E0
7.918855292E0,-4.512367947E-1,-3.209772022E0,-6.828203607E0,7.558479714E0
7.928775292E0,-3.379683338E-1,-2.806528735E0,-6.381477501E0,6.979547351E0
7.938696292E0,1.077641845E-2,-2.441417772E0,-5.948726240E0,6.430239556E0
7.948616292E0,5.042203161E-1,-2.057857090E0,-5.604523458E0,5.991635597E0
7.958537292E0,9.721339546E-1,-1.422924899E0,-5.134189219E0,5.415686349E0
7.968457292E0,1.099765808E0,-9.917757753E-1,-4.440546305E0,4.680978051E0
7.978378292E0,1.016015262E0,-9.579870549E-1,-3.535597882E0,3.801378512E0
7.988298292E0,7.550731766E-1,-5.279486096E-1,-2.254321489E0,2.435329672E0
7.998219292E0,1.590362258E-1,7.361849159E-2,-1.770706469E-1,2.491309242E-1
8.008139292E0,-6.957116586E-1,6.475595453E-1,2.520057560E0,2.693332171E0
8.018060292E0,-1.830009369E0,1.859302019E0,5.612980286E0,6.189627289E0
8.027980292E0,-2.781378983E0,4.092046405E0,8.757344477E0,1.005842906E1
8.037900292E0,-3.182967508E0,6.696562318E0,1.157228765E1,1.374383754E1
8.047821292E0,-3.075248932E0,8.834360493E0,1.434871521E1,1.712859333E1
8.057741292E0,-3.093886932E0,1.004294372E1,1.753965072E1,2.044681399E1
8.067662292E0,-3.789614378E0,9.332367851E0,2.169172932E1,2.391621600E1
8.077582292E0,-4.641160766E0,7.188937637E0,2.597511416E1,2.734826783E1
8.087503292E0,-4.628411497E0,5.375518427E0,2.844483538E1,2.931598627E1
8.097423292E0,-3.323643916E0,3.906983784E0,2.889112528E1,2.934294210E1
8.107344292E0,-2.167791761E0,3.390229376E0,2.769458849E1,2.798541063E1
8.117264292E0,-2.078770680E0,3.113916569E0,2.538915532E1,2.566372872E1
8.127184292E0,-2.539034406E0,2.617304943E0,2.263418120E1,2.292603628E1
8.137105292E0,-3.046908647E0,2.182051950E0,1.913491265E1,1.949845853E1
8.147025292E0,-2.916666597E0,1.927070663E0,1.475536216E1,1.516381409E1
8.156946292E0,-1.560069150E0,1.727910697E0,1.033392105E1,1.059289457E1
8.166866292E0,3.562233411E-1,1.390651777E0,6.270623648E0,6.432847609E0
8.176787292E0,2.194825778E0,1.038584198E0,2.373183689E0,3.395278804E0
8.186707292E0,3.630394988E0,5.813199475E-1,-1.332878655E0,3.910788432E0
8.196628292E0,4.444198768E0,1.398937574E-1,-4.622502885E0,6.413891633E0
8.206548292E0,4.573896736E0,-6.303275084E-1,-7.472954443E0,8.784241129E0
8.216469292E0,4.109504437E0,-1.575386662E0,-9.741040277E0,1.068914101E1
8.226389292E0,3.115695000E0,-2.265418920E0,-1.148161020E1,1.211061728E1
8.236309292E0,1.844475234E0,-2.784934383E0,-1.264069557E1,1.307459877E1
8.246230292E0,7.940334669E-1,-3.280144140E0,-1.303100891E1,1.346094454E1
8.256150292E0,1.256316675E-1,-3.752673716E0,-1.305134552E1,1.358072028E1
8.266071292E0,-9.482824311E-2,-4.074539257E0,-1.327422969E1,1.388582142E1
8.275991292E0,3.500859573E-2,-4.046270016E0,-1.377828190E1,1.436017335E1
8.285912292E0,4.078647803E-1,-3.790305227E0,-1.427474676E1,1.477501819E1
8.295832292E0,1.024994538E0,-3.504048645E0,-1.447213473E1,1.492553699E1
8.305753292E0,1.642368125E0,-3.285976152E0,-1.428485192E1,1.474964429E1
8.315673292E0,2.178289121E0,-3.182914591E0,-1.382632847E1,1.435420662E1
8.325593292E0,2.341243420E0,-3.100693091E0,-1.324889020E1,1.380683924E1
8.335514292E0,2.247693086E0,-3.205266742E0,-1.249627285E1,1.309514010E1
8.345434292E0,2.061074374E0,-3.463975630E0,-1.138659645E1,1.207897899E1
8.355355292E0,1.694021551E0,-3.614435598E0,-9.986228063E0,1.075446905E1
8.365275292E0,1.276437968E0,-3.812676674E0,-8.599987133E0,9.493449109E0
8.375196292E0,8.462262985E-1,-3.983345204E0,-7.420672148E0,8.464603541E0
8.385116292E0,4.402112849E-1,-4.123657622E0,-6.556702182E0,7.758136481E0
8.395037292E0,5.114968836E-2,-4.079456473E0,-6.182880914E0,7.407604053E0
8.404957292E0,-1.211067997E-1,-3.893361818E0,-6.107436630E0,7.243874328E0
8.414878292E0,-6.411793560E-2,-3.641213214E0,-6.079543657E0,7.086846679E0
8.424798292E0,2.218816611E-1,-3.350444336E0,-6.140317277E0,6.998443040E0
8.434718292E0,5.147406265E-1,-2.936339554E0,-6.395642381E0,7.056294307E0
8.444639292E0,6.705528438E-1,-2.479316208E0,-6.635053117E0,7.114814112E0
8.454559292E0,8.416681015E-1,-2.205850118E0,-6.392711172E0,6.814758694E0
8.464480042E0,9.357914628E-1,-1.913967345E0,-6.047148913E0,6.411473047E0
8.474400042E0,1.065810881E0,-1.543291003E0,-5.638675291E0,5.942420297E0
8.484321042E0,1.201153897E0,-1.134786099E0,-5.103740428E0,5.364576081E0
8.494241042E0,1.120575757E0,-5.723620132E-1,-4.397649377E0,4.574123779E0
8.504162042E0,1.000828581E0,1.999534330E-1,-3.105462080E0,3.268873499E0
8.514082042E0,6.661425814E-1,1.315698074E0,-1.005891246E0,1.785111918E0
8.524002042E0,1.598853877E-1,2.753206806E0,1.331102271E0,3.062277634E0
8.533923042E0,-8.714454858E-1,5.067246201E0,4.333626459E0,6.724337854E0
8.543843042E0,-2.227024348E0,7.915720814E0,7.724606325E0,1.128219023E1
8.553764042E0,-2.897017613E0,1.004893594E1,1.195842841E1,1.588640409E1
8.563684042E0,-3.416695336E0,1.112471837E1,1.736719879E1,2.090580684E1
8.573605042E0,-4.094206367E0,1.031810199E1,2.242483684E1,2.502197158E1
8.583525042E0,-4.433552451E0,8.621936411E0,2.644092909E1,2.816233133E1
8.593446042E0,-4.188097447E0,6.880581211E0,2.909411722E1,3.018857756E1
8.603366042E0,-3.213669776E0,4.936905917E0,3.038532277E1,3.095106708E1
8.613287042E0,-2.026183892E0,3.576289240E0,3.080963416E1,3.108261287E1
8.623207042E0,-9.805679054E-1,2.613613595E0,2.931239144E1,2.944501285E1
8.633127042E0,-3.969949526E-1,2.125174914E0,2.538603759E1,2.547792923E1
8.643048042E0,-3.445213815E-1,1.910860135E0,2.050199401E1,2.059373302E1
8.652968042E0,-2.764347214E-1,1.682843283E0,1.587640438E1,1.596773602E1
8.662889042E0,-1.894395545E-1,1.486570087E0,1.146449774E1,1.156202778E1
8.672809042E0,3.265399508E-2,9.929525274E-1,7.289800352E0,7.357187655E0
8.682730042E0,7.792557988E-1,1.810575709E-1,3.707140571E0,3.792481069E0
8.692650042E0,1.785014898E0,-5.659616509E-1,6.693225896E-1,1.988613463E0
8.702571042E0,2.353154490E0,-1.091816373E0,-2.450887338E0,3.568788000E0
8.712491042E0,2.496237758E0,-1.384869758E0,-5.575886720E0,6.264150374E0
8.722411042E0,2.237607662E0,-1.756774308E0,-8.493526878E0,8.957295509E0
8.732332042E0,1.697840368E0,-2.265626496E0,-1.088969773E1,1.125172173E1
8.742252042E0,1.020991096E0,-2.884322723E0,-1.235668929E1,1.272986687E1
8.752173042E0,3.821091110E-1,-3.469919032E0,-1.307715630E1,1.353507896E1
8.762093042E0,1.141508058E-2,-3.959785311E0,-1.338827612E1,1.396158901E1
8.772014042E0,-1.265226370E-1,-4.332735343E0,-1.332223767E1,1.400966167E1
8.781934042E0,-1.183317111E-1,-4.715197626E0,-1.321780172E1,1.403415026E1
8.791855042E0,1.350999177E-3,-4.794877049E0,-1.347849398E1,1.430596546E1
8.801775042E0,5.632166755E-1,-4.413909314E0,-1.425256476E1,1.493102176E1
8.811696042E0,1.553870224E0,-4.060910859E0,-1.494707131E1,1.556664545E1
8.821616042E0,2.567779026E0,-3.769526561E0,-1.493203929E1,1.561309120E1
8.831536042E0,3.199791994E0,-3.618117005E0,-1.420390774E1,1.500268092E1
8.841457042E0,3.117392154E0,-3.873879188E0,-1.317627947E1,1.408330269E1
8.851377042E0,2.565966974E0,-4.316023124E0,-1.208411314E1,1.308579507E1
8.861298042E0,1.860222370E0,-4.613858654E0,-1.079436940E1,1.188555971E1
8.871218042E0,1.248530377E0,-4.847949302E0,-9.528253083E0,1.076331953E1
8.881139042E0,7.051133966E-1,-4.983812866E0,-8.524385558E0,9.899531541E0
8.891059042E0,3.262825271E-1,-4.932660838E0,-8.015425782E0,9.417252980E0
8.900980042E0,2.251121016E-1,-4.668255301E0,-7.941146847E0,9.214396142E0
8.910900042E0,3.016936697E-1,-4.188241873E0,-7.760425783E0,8.823638558E0
8.920820042E0,4.620349941E-1,-3.798326145E0,-7.323592581E0,8.262915111E0
8.930741042E0,4.691886239E-1,-3.497611738E0,-6.859171631E0,7.713731995E0
8.940661042E0,3.896625441E-1,-3.157532120E0,-6.509231561E0,7.245132263E0
8.950582042E0,2.906374620E-1,-2.718602691E0,-6.246966398E0,6.819080576E0
8.960502042E0,3.122970106E-1,-2.234420199E0,-5.790724533E0,6.214712677E0
8.970423042E0,5.795926800E-1,-1.760268312E0,-5.201350923E0,5.521641389E0
8.980343042E0,9.413653211E-1,-1.045845855E0,-4.500086163E0,4.714948324E0
8.990264042E0,1.118634189E0,-3.911076835E-1,-3.489325356E0,3.685064329E0
9.000184042E0,1.171175076E0,4.680511943E-1,-1.943347850E0,2.316748550E0
9.010105042E0,9.393875004E-1,1.587738028E0,4.555682659E-1,1.900237713E0
9.020025042E0,-6.535725296E-2,2.612221666E0,3.874148744E0,4.673007821E0
9.029945042E0,-1.814629876E0,3.880501744E0,7.698900796E0,8.810462464E0
9.039866042E0,-3.728472968E0,6.231202889E0,1.099651934E1,1.317774023E1
9.049786042E0,-4.932370816E0,9.249014037E0,1.369949301E1,1.724959858E1
9.059707042E0,-5.431455231E0,1.182365828E1,1.611923106E1,2.071543412E1
9.069627042E0,-6.177122576E0,1.275003850E1,1.912252123E1,2.379897358E1
9.079548042E0,-7.274291782E0,1.139887560E1,2.297529139E1,2.665921417E1
9.089468042E0,-8.239932550E0,9.118217670E0,2.671819470E1,2.940918751E1
9.099389042E0,-8.038526961E0,6.335715437E0,2.959902195E1,3.131870538E1
9.109309042E0,-7.020957071E0,4.097687506E0,3.215088252E1,3.316269181E1
9.119229042E0,-5.900776733E0,2.027081147E0,3.342863246E1,3.400590672E1
9.129150042E0,-5.189054813E0,6.922372431E-1,3.132049838E1,3.175498545E1
9.139070042E0,-4.183875465E0,7.589177209E-1,2.622160237E1,2.656413373E1
9.148991042E0,-2.619229261E0,1.736521307E0,2.011848449E1,2.036244795E1
9.158911042E0,-5.564760053E-1,2.283836187E0,1.390300652E1,1.410032494E1
9.168832042E0,1.719283862E0,2.448183001E0,8.020875387E0,8.560606227E0
9.178752042E0,3.947236016E0,1.952567739E0,3.147111797E0,5.412717027E0
9.188673042E0,5.188564231E0,1.177091873E0,-9.620932621E-1,5.406696543E0
9.198593042E0,5.393186374E0,-1.744838387E-2,-4.535242547E0,7.046643788E0
9.208513042E0,5.083340077E0,-1.518274568E0,-7.509065092E0,9.194104772E0
9.218434042E0,4.396449528E0,-3.284657898E0,-1.015557746E1,1.154354796E1
9.228354042E0,3.447539106E0,-4.784948184E0,-1.244269598E1,1.376960197E1
9.238275042E0,2.465979002E0,-5.614919808E0,-1.422853972E1,1.549386071E1
9.248195042E0,1.632486185E0,-6.097263644E0,-1.551641938E1,1.675114639E1
9.258116042E0,1.096633601E0,-6.357351889E0,-1.654807989E1,1.776112261E1
9.268036042E0,9.607254522E-1,-6.166241493E0,-1.721995654E1,1.831590650E1
9.277957042E0,1.207628811E0,-5.703908583E0,-1.757589527E1,1.851769519E1
9.287877042E0,1.645696507E0,-5.424697019E0,-1.761190359E1,1.850175135E1
9.297798042E0,2.264101688E0,-5.248694658E0,-1.735415716E1,1.827133610E1
9.307718042E0,3.032522158E0,-5.028392622E0,-1.674715770E1,1.774678039E1
9.317638042E0,3.476670812E0,-4.734157807E0,-1.581633710E1,1.687175182E1
9.327559042E0,3.238832976E0,-4.714124662E0,-1.467960797E1,1.575448827E1
9.337479042E0,2.848064724E0,-4.938084131E0,-1.310185611E1,1.428827425E1
9.347400042E0,2.483051994E0,-5.120578655E0,-1.096744231E1,1.235599707E1
9.357320042E0,1.957983577E0,-5.421721371E0,-8.864207021E0,1.057369039E1
9.367241042E0,1.296119403E0,-5.586902289E0,-7.349591056E0,9.322547473E0
9.377161042E0,7.929583101E-1,-5.354073179E0,-6.436209778E0,8.409499319E0
9.387082042E0,6.359234400E-1,-4.996277375E0,-5.998628717E0,7.832670855E0
9.397002042E0,7.340110673E-1,-4.594326323E0,-5.959228424E0,7.560357797E0
9.406923042E0,8.754644233E-1,-4.016685736E0,-6.095203085E0,7.351986324E0
9.416843042E0,9.646655984E-1,-3.574726864E0,-6.220303679E0,7.238883183E0
9.426763042E0,1.001732122E0,-3.326545304E0,-6.343139062E0,7.232204647E0
9.436684042E0,1.039140415E0,-2.956698974E0,-6.524672889E0,7.238317341E0
9.446604042E0,1.227539603E0,-2.608553123E0,-6.511541212E0,7.121205784E0
9.456525042E0,1.330756847E0,-2.365370055E0,-6.378156282E0,6.931577515E0
9.466445708E0,1.305396742E0,-2.292966322E0,-6.258842093E0,6.792264685E0
9.476366708E0,1.277380977E0,-2.263170958E0,-6.050999889E0,6.585457053E0
9.486286708E0,1.229123614E0,-2.232114057E0,-5.644521337E0,6.193036343E0
9.496207708E0,1.059162889E0,-2.255167581E0,-4.875941677E0,5.475619973E0
9.506127708E0,9.179925384E-1,-2.221232388E0,-3.438237063E0,4.195003901E0
9.516047708E0,6.410168034E-1,-1.763973692E0,-1.299829608E0,2.282994248E0
9.525968708E0,1.656025028E-1,-6.808547607E-1,1.154412278E0,1.350427748E0
9.535888708E0,-6.143630017E-1,1.285864118E0,3.986915807E0,4.233956315E0
9.545809708E0,-1.788900665E0,4.059937005E0,6.947038325E0,8.242851179E0
9.555729708E0,-3.023703095E0,7.537995361E0,1.029714791E1,1.311470204E1
9.565650708E0,-3.404817010E0,1.035880563E1,1.457501298E1,1.820243490E1
9.575570708E0,-2.626305562E0,1.079750468E1,1.961201621E1,2.254140120E1
9.585491708E0,-1.574669501E0,9.990779536E0,2.423938457E1,2.626486291E1
9.595411708E0,-4.288768959E-1,9.533714383E0,2.792368006E1,2.950944855E1
9.605332708E0,1.018891507E0,8.098262116E0,3.105358468E1,3.210833397E1
9.615252708E0,1.677254660E0,6.809339905E0,3.379425184E1,3.451422533E1
9.625172708E0,1.192302235E0,5.251470916E0,3.496704191E1,3.537928139E1
9.635093708E0,-3.378743033E-1,3.143415188E0,3.339496653E1,3.354428427E1
9.645013708E0,-1.723729646E0,1.917981751E0,2.901058858E1,2.912497463E1
9.654934708E0,-2.012853702E0,1.906717090E0,2.265572936E1,2.282475022E1
9.664854708E0,-1.678615454E0,2.097658210E0,1.563561136E1,1.586474905E1
9.674775708E0,-8.135940843E-1,1.588433262E0,9.418796715E0,9.586385508E0
9.684695708E0,4.403359402E-1,3.967403063E-1,4.527637659E0,4.566267774E0
9.694616708E0,1.741637621E0,-1.275390000E0,6.468698663E-1,2.253522105E0
9.704536708E0,2.320740012E0,-2.657175644E0,-2.746945315E0,4.471255436E0
9.714456708E0,2.294318491E0,-3.550957932E0,-5.770388501E0,7.153361660E0
9.724377708E0,2.499526232E0,-4.146631625E0,-8.356155902E0,9.657511412E0
9.734297708E0,2.542923682E0,-4.584287238E0,-1.124297246E1,1.240510299E1
9.744218708E0,2.107556376E0,-4.847315171E0,-1.483011180E1,1.574390276E1
9.754138708E0,7.961573218E-1,-4.610869265E0,-1.855417187E1,1.913507971E1
9.764059708E0,-1.247433293E-1,-3.964457236E0,-2.011410609E1,2.050145717E1
9.773979708E0,-4.348223448E-1,-3.717163576E0,-1.993073975E1,2.027907203E1
9.783900708E0,-3.984976870E-1,-3.624654192E0,-1.887447299E1,1.922349211E1
9.793820708E0,-1.510424973E-1,-3.530131612E0,-1.729926116E1,1.765641752E1
9.803741708E0,-5.683683649E-2,-3.797909238E0,-1.571778345E1,1.617022145E1
9.813661708E0,6.678046525E-2,-3.931792643E0,-1.434059109E1,1.486996993E1
9.823581708E0,3.093235552E-1,-3.748200304E0,-1.301300767E1,1.354559173E1
9.833502708E0,6.547209227E-1,-3.348531420E0,-1.145704838E1,1.195429964E1
9.843422708E0,1.015244525E0,-3.217254119E0,-9.366967580E0,9.955979467E0
9.853343708E0,1.073685911E0,-3.375232730E0,-7.015759481E0,7.859127083E0
9.863263708E0,8.749355426E-1,-3.699892655E0,-5.286964685E0,6.512043722E0
9.873184708E0,6.527195670E-1,-3.890003762E0,-4.606896082E0,6.064788835E0
9.883104708E0,4.121716931E-1,-3.833153915E0,-4.657217805E0,6.045877283E0
9.893025708E0,2.508946681E-1,-3.703814382E0,-4.902113814E0,6.149138880E0
9.902945708E0,3.233840623E-1,-3.589904189E0,-5.288522383E0,6.400035807E0
9.912865708E0,5.718844418E-1,-3.299930825E0,-6.154876844E0,7.007075298E0
9.922786708E0,9.432414003E-1,-2.972287651E0,-7.297415766E0,7.935771864E0
9.932706708E0,1.583417228E0,-2.730465815E0,-8.222700806E0,8.807693354E0
9.942627708E0,2.021282902E0,-2.465560341E0,-8.904303718E0,9.457864297E0
9.952547708E0,2.238106576E0,-2.469220406E0,-9.414431183E0,9.986875636E0
9.962468708E0,2.243012974E0,-2.462886117E0,-9.624206477E0,1.018441287E1
9.972388708E0,2.178544937E0,-2.545514583E0,-9.762602470E0,1.032153620E1
9.982309708E0,2.130657410E0,-2.750083808E0,-9.710577453E0,1.031493948E1
9.992229708E0,2.144451138E0,-2.682172199E0,-9.257380818E0,9.873794509E0
1.000215071E1,1.793143843E0,-2.421695698E0,-8.191766696E0,8.728402861E0
1.001207071E1,5.132944639E-1,-1.907981843E0,-6.815395281E0,7.096018515E0
1.002199071E1,-1.144780890E0,-1.017228705E0,-4.595949510E0,4.844381222E0
1.003191171E1,-2.894656507E0,4.193076351E-1,-1.053051964E0,3.108661067E0
1.004183171E1,-4.859231797E0,2.415200027E0,3.210575722E0,6.305007636E0
1.005175271E1,-6.913572371E0,4.922021245E0,7.932563134E0,1.161676951E1
1.006167271E1,-8.855162548E0,7.731124216E0,1.303383896E1,1.755178462E1
1.007159371E1,-9.945895139E0,9.950306278E0,1.790180387E1,2.276848714E1
1.008151371E1,-9.291271865E0,1.113918672E1,2.287504906E1,2.708647417E1
1.009143471E1,-6.962266814E0,1.093185498E1,2.839856519E1,3.121629570E1
1.010135471E1,-3.740163598E0,9.661712272E0,3.430265086E1,3.583307640E1
1.011127471E1,-1.926103534E-1,7.469203454E0,3.928454175E1,3.998876492E1
1.012119571E1,1.548096683E0,5.544520501E0,4.043242970E1,4.084017241E1
1.013111571E1,1.388679804E0,3.898652963E0,3.788032823E1,3.810573702E1
1.014103671E1,8.743955523E-1,4.199507704E0,3.166565250E1,3.195487413E1
1.015095671E1,9.927009510E-1,5.538779120E0,2.338663599E1,2.405406976E1
1.016087771E1,1.527324596E0,6.562628335E0,1.526485228E1,1.668581812E1
1.017079771E1,2.025463808E0,6.591980773E0,9.159860371E0,1.146559009E1
1.018071871E1,2.178543036E0,5.202816235E0,5.705424766E0,8.022918315E0
1.019063871E1,1.436785432E0,3.012921122E0,3.201405534E0,4.625045238E0
1.020055971E1,5.674795150E-1,7.508813077E-1,5.096579343E-1,1.070330299E0
1.021047971E1,3.576951583E-1,-8.868378425E-1,-2.162936525E0,2.364893570E0
1.022039971E1,6.631701493E-1,-2.195801093E0,-4.634206672E0,5.170803474E0
1.023032071E1,8.920306085E-1,-3.507719527E0,-6.800064467E0,7.703290961E0
1.024024071E1,8.805016534E-1,-4.696262295E0,-8.668555092E0,9.898182161E0
1.025016171E1,8.269468591E-1,-5.367791916E0,-1.032038007E1,1.166221574E1
1.026008171E1,6.847267869E-1,-5.630254716E0,-1.205001218E1,1.331808592E1
1.027000271E1,8.159043923E-1,-5.694560055E0,-1.406479897E1,1.519579825E1
1.027992271E1,1.153605362E0,-5.523700320E0,-1.601535059E1,1.698038649E1
1.028984371E1,1.411618869E0,-5.351030872E0,-1.788102637E1,1.871783383E1
1.029976371E1,1.551580893E0,-5.173476076E0,-1.894477757E1,1.969966637E1
1.030968371E1,1.752754786E0,-4.950289024E0,-1.873055898E1,1.945279801E1
1.031960471E1,1.871901745E0,-4.846606489E0,-1.796734180E1,1.870344840E1
1.032952471E1,1.712462354E0,-4.841092564E0,-1.680902709E1,1.757589532E1
1.033944571E1,1.397385431E0,-4.835290080E0,-1.553700275E1,1.633190652E1
1.034936571E1,1.310049371E0,-4.693655899E0,-1.384273108E1,1.467541614E1
1.035928671E1,1.369739210E0,-4.486306907E0,-1.187530323E1,1.276816204E1
1.036920671E1,1.431731683E0,-4.308196918E0,-1.009236204E1,1.106644423E1
1.037912771E1,1.427157991E0,-4.129914435E0,-8.712817345E0,9.747110303E0
1.038904771E1,1.218697590E0,-3.941737587E0,-7.734468824E0,8.766101015E0
1.039896871E1,1.029322940E0,-3.826073814E0,-7.001336154E0,8.044691075E0
1.040888871E1,7.459980056E-1,-3.748576280E0,-6.450407403E0,7.497739180E0
1.041880871E1,3.744391720E-1,-3.567860479E0,-6.077183136E0,7.057052356E0
1.042872971E1,9.482151881E-2,-3.402949702E0,-6.018833771E0,6.914869323E0
1.043864971E1,5.888146162E-2,-3.148162542E0,-6.101368389E0,6.865936982E0
1.044857071E1,2.688652083E-1,-2.858071941E0,-6.256070513E0,6.883260999E0
1.045849071E1,5.468056608E-1,-2.443988793E0,-6.551406358E0,7.013772375E0
1.046841146E1,7.509125172E-1,-1.974517310E0,-6.567225416E0,6.898625796E0
1.047833146E1,8.248945595E-1,-1.682164129E0,-6.281902927E0,6.555336114E0
1.048825246E1,7.787278683E-1,-1.590715284E0,-5.499477645E0,5.777633302E0
1.049817246E1,5.456534670E-1,-1.548393429E0,-4.774470266E0,5.048844050E0
1.050809346E1,2.043221802E-1,-1.280997480E0,-4.093218187E0,4.293848766E0
1.051801346E1,-1.261422756E-1,-8.491658400E-1,-2.571179182E0,2.710711509E0
1.052793346E1,-5.112018185E-1,-3.482119247E-1,-4.283284271E-1,7.523590135E-1
1.053785446E1,-6.716003725E-1,5.954210928E-1,1.961828560E0,2.157393018E0
1.054777446E1,-8.716943579E-1,1.815082304E0,4.959402494E0,5.352573953E0
1.055769546E1,-1.204606239E0,3.105995346E0,8.532875131E0,9.160144174E0
1.056761546E1,-1.454831839E0,4.949505497E0,1.167000398E1,1.275943311E1
1.057753646E1,-1.262569688E0,7.469791684E0,1.464448024E1,1.648795535E1
1.058745646E1,-9.933927497E-1,9.090690733E0,1.784588460E1,2.005250818E1
1.059737746E1,-1.026388295E0,9.020001404E0,2.098726379E1,2.286655067E1
1.060729746E1,-6.705479468E-1,8.347151189E0,2.394888554E1,2.537072498E1
1.061721746E1,5.984639838E-1,6.897619997E0,2.719592157E1,2.806338310E1
1.062713846E1,1.641012887E0,4.708240024E0,3.019221964E1,3.060115316E1
1.063705846E1,1.613070944E0,2.906703526E0,3.150532418E1,3.168022057E1
1.064697946E1,1.226533882E-1,1.235741785E0,3.066994184E1,3.069507182E1
1.065689946E1,-2.338588053E0,-1.373382318E-1,2.794004291E1,2.803807864E1
1.066682046E1,-4.084718090E0,-4.521170931E-1,2.325601387E1,2.361633996E1
1.067674046E1,-3.892058766E0,4.027262472E-1,1.756452010E1,1.799507366E1
1.068666146E1,-2.410594029E0,1.008618388E0,1.184985381E1,1.213455025E1
1.069658146E1,-3.795712001E-1,1.325476957E0,6.619547471E0,6.761610176E0
1.070650146E1,1.673417425E0,1.270014947E0,1.740363513E0,2.728026576E0
1.071642246E1,3.073445651E0,8.971616864E-1,-2.826020721E0,4.270522260E0
1.072634246E1,3.151382604E0,3.916505975E-1,-6.797770019E0,7.502951402E0
1.073626346E1,1.978959147E0,-1.396551910E-1,-1.022750289E1,1.041813795E1
1.074618346E1,5.405950772E-1,-7.514014176E-1,-1.256980510E1,1.260384256E1
1.075610446E1,-6.633179377E-1,-1.478861995E0,-1.309964119E1,1.319953116E1
1.076602446E1,-1.519455413E0,-2.494861908E0,-1.279168354E1,1.312098504E1
1.077594546E1,-1.888264447E0,-3.093880793E0,-1.307599154E1,1.356905287E1
1.078586546E1,-1.813341442E0,-2.862576636E0,-1.393670168E1,1.434274053E1
1.079578646E1,-1.320957644E0,-2.518105467E0,-1.482897276E1,1.509914624E1
1.080570646E1,-7.269816177E-1,-2.255844981E0,-1.542527064E1,1.560629082E1
1.081562646E1,2.765802439E-2,-2.003938745E0,-1.574788258E1,1.587489657E1
1.082554746E1,6.324268050E-1,-1.752393574E0,-1.557423431E1,1.568526765E1
1.083546746E1,9.261203143E-1,-1.704587908E0,-1.504123955E1,1.516582362E1
1.084538846E1,1.001607795E0,-1.890447797E0,-1.403831109E1,1.420039398E1
1.085530846E1,9.359395435E-1,-2.167032208E0,-1.234664026E1,1.257026401E1
1.086522946E1,8.107088488E-1,-2.537059509E0,-1.048734497E1,1.082027376E1
1.087514946E1,5.464819443E-1,-2.796332068E0,-8.870083473E0,9.316463726E0
1.088507046E1,2.498009464E-1,-2.951789652E0,-7.554658756E0,8.114698490E0
1.089499046E1,-2.437177956E-2,-3.005284950E0,-6.538282283E0,7.195934048E0
1.090491146E1,-1.659853493E-1,-2.974510177E0,-5.856604527E0,6.570774575E0
1.091483146E1,-2.103206194E-1,-2.930174834E0,-5.688005911E0,6.401841185E0
1.092475146E1,-1.574213710E-1,-2.800440322E0,-5.929340381E0,6.559293013E0
1.093467246E1,-9.243643954E-2,-2.605941464E0,-6.343313309E0,6.858359800E0
1.094459246E1,5.953203745E-2,-2.462704561E0,-6.828528712E0,7.259287995E0
1.095451346E1,3.353446881E-1,-2.307974809E0,-7.195795836E0,7.564303107E0
1.096443346E1,6.143591280E-1,-2.194376858E0,-7.257935951E0,7.607257140E0
1.097435446E1,7.182377645E-1,-2.124932693E0,-7.239847004E0,7.579352814E0
1.098427446E1,8.033502010E-1,-2.007375738E0,-7.181065530E0,7.499508721E0
1.099419546E1,1.034459938E0,-1.846286701E0,-7.012675075E0,7.325059293E0
1.100411546E1,1.230702801E0,-1.630005649E0,-6.896727127E0,7.192801462E0
1.101403546E1,1.352732584E0,-1.334410626E0,-6.728021507E0,6.991195217E0
1.102395646E1,1.295040738E0,-9.374658130E-1,-6.019367622E0,6.228062237E0
1.103387646E1,1.126398852E0,-5.918848430E-1,-4.709860872E0,4.878718221E0
1.104379746E1,7.788343607E-1,1.266680865E-1,-2.875022142E0,2.981338639E0
1.105371746E1,2.439199631E-1,1.041660857E0,-3.540828216E-1,1.126911236E0
1.106363846E1,-8.010830162E-1,2.238021645E0,2.780961492E0,3.658445257E0
1.107355846E1,-2.390592604E0,3.878167828E0,6.298462826E0,7.773400329E0
1.108347946E1,-3.733957364E0,6.008691775E0,9.880115132E0,1.215168669E1
1.109339946E1,-3.728372980E0,8.326521628E0,1.349537606E1,1.628977908E1
1.110332046E1,-2.630179050E0,9.442375027E0,1.778443505E1,2.030670869E1
1.111324046E1,-2.019706054E0,9.076876101E0,2.221126612E1,2.407922829E1
1.112316046E1,-1.884822337E0,8.879854755E0,2.571306534E1,2.726840855E1
1.113308146E1,-2.919162115E-1,7.064692490E0,2.913396249E1,2.997970756E1
1.114300146E1,1.475026368E0,4.240462772E0,3.285144211E1,3.315681643E1
1.115292246E1,1.858402571E0,2.072801696E0,3.448708374E1,3.459926461E1
1.116284246E1,7.411095871E-1,3.747619383E-1,3.289465303E1,3.290513467E1
1.117276346E1,-1.118840303E0,-5.462081484E-1,2.923780436E1,2.926430165E1
1.118268346E1,-2.500738944E0,-5.286254248E-1,2.410042198E1,2.423558292E1
1.119260446E1,-2.705641461E0,-1.341392201E-1,1.788315125E1,1.808716638E1
1.120252446E1,-2.144535045E0,7.161736974E-1,1.171209574E1,1.192833274E1
1.121244446E1,-6.433200216E-1,1.016444593E0,6.917707522E0,7.021516761E0
1.122236546E1,1.471103325E0,8.797112560E-1,3.344036665E0,3.757741090E0
1.123228546E1,3.433382705E0,3.551437989E-1,8.017760575E-2,3.452632672E0
1.124220646E1,4.694097071E0,-4.329871961E-1,-3.404898579E0,5.815097553E0
1.125212646E1,4.988149161E0,-1.168785903E0,-6.944360885E0,8.629706869E0
1.126204746E1,4.377039696E0,-1.874436074E0,-1.005154848E1,1.112230255E1
1.127196746E1,3.222984683E0,-2.350561981E0,-1.259915695E1,1.321557898E1
1.128188846E1,1.873742302E0,-2.541794292E0,-1.455705618E1,1.489562060E1
1.129180846E1,6.158042673E-1,-2.597244608E0,-1.574160267E1,1.596630668E1
1.130172946E1,-2.865792020E-1,-2.577735957E0,-1.646024184E1,1.666332536E1
1.131164946E1,-5.731578192E-1,-2.590282035E0,-1.701489352E1,1.722047248E1
1.132156946E1,-3.996796285E-1,-2.460620028E0,-1.718000836E1,1.735992748E1
1.133149046E1,1.350589871E-2,-2.284290516E0,-1.698759872E1,1.714049812E1
1.134141046E1,3.930900358E-1,-2.073242284E0,-1.671215042E1,1.684484565E1
1.135133146E1,7.146781989E-1,-2.000522802E0,-1.638753055E1,1.652464868E1
1.136125146E1,1.077185981E0,-1.927403662E0,-1.585294418E1,1.600596931E1
1.137117246E1,1.344080312E0,-1.783235590E0,-1.513436932E1,1.529822264E1
1.138109246E1,1.460350149E0,-1.794927390E0,-1.412740277E1,1.431565213E1
1.139101346E1,1.399324075E0,-1.918576121E0,-1.276557689E1,1.298456759E1
1.140093346E1,1.229879513E0,-2.063016088E0,-1.116922387E1,1.142454379E1
1.141085446E1,9.733861358E-1,-2.173559162E0,-9.533581066E0,9.826546084E0
1.142077446E1,5.775975370E-1,-2.377675374E0,-7.877808053E0,8.249049571E0
1.143069446E1,6.088479079E-2,-2.655896566E0,-6.387827577E0,6.918224821E0
1.144061546E1,-3.746155386E-1,-2.772877132E0,-5.355163684E0,6.042099178E0
1.145053546E1,-5.682704240E-1,-2.727989811E0,-4.878844820E0,5.618539531E0
1.146045646E1,-5.034416132E-1,-2.520079487E0,-4.756657308E0,5.406481557E0
1.147037629E1,-2.706076786E-1,-2.225192123E0,-4.709947996E0,5.216159374E0
1.148029729E1,-4.444015458E-2,-1.971101367E0,-4.795395112E0,5.184884744E0
1.149021729E1,1.558237655E-1,-1.830205543E0,-4.848765573E0,5.185022754E0
1.150013829E1,3.714826736E-1,-1.643473834E0,-4.774280816E0,5.062880893E0
1.151005829E1,5.852033758E-1,-1.509761753E0,-4.426038778E0,4.712925080E0
1.151997829E1,6.841114406E-1,-1.533428066E0,-4.069753311E0,4.402533601E0
1.152989929E1,6.954287995E-1,-1.357994054E0,-3.895760053E0,4.183863700E0
1.153981929E1,8.346648914E-1,-9.446733834E-1,-3.682014500E0,3.891825287E0
1.154974029E1,7.691727139E-1,-2.200506055E-1,-2.967414581E0,3.073369198E0
1.155966029E1,4.443766221E-1,6.194785845E-1,-1.215536147E0,1.434835330E0
1.156958129E1,-9.890536040E-2,1.556182359E0,1.541074616E0,2.192349602E0
1.157950129E1,-1.099818433E0,2.686435404E0,5.068498090E0,5.840908204E0
1.158942229E1,-2.297024875E0,4.372472728E0,8.162545820E0,9.540544812E0
1.159934229E1,-2.916332136E0,6.420599467E0,1.097727264E1,1.304720680E1
1.160926329E1,-3.005623212E0,8.612841652E0,1.418295951E1,1.686330788E1
1.161918329E1,-2.865878266E0,9.415055081E0,1.800055164E1,2.051527187E1
1.162910329E1,-3.035520610E0,8.659572015E0,2.226705090E1,2.408369009E1
1.163902429E1,-2.897345934E0,7.639608859E0,2.534362890E1,2.662813856E1
1.164894429E1,-1.393802111E0,5.573638465E0,2.770133384E1,2.829084705E1
1.165886529E1,-7.715122397E-2,3.748661357E0,3.007941984E1,3.031220731E1
1.166878529E1,5.133731090E-2,2.729959738E0,3.108668927E1,3.120637059E1
1.167870629E1,-8.922998728E-1,1.109563549E0,3.001618337E1,3.004993501E1
1.168862629E1,-2.379803030E0,-2.545848459E-2,2.695567819E1,2.706053764E1
1.169854729E1,-2.837667789E0,-2.112587321E-1,2.224825795E1,2.242948886E1
1.170846729E1,-1.995697241E0,-3.099462837E-2,1.651440811E1,1.663458576E1
1.171838729E1,-7.542042073E-1,3.073480734E-1,1.088254073E1,1.091297300E1
1.172830829E1,1.102298238E0,1.514817694E-1,6.276519980E0,6.374379279E0
1.173822829E1,3.050388618E0,-5.049026862E-1,2.615282975E0,4.049629919E0
1.174814929E1,4.565482885E0,-1.458722723E0,-7.455574179E-1,4.850501192E0
1.175806929E1,5.193950102E0,-2.592556310E0,-4.048482310E0,7.077335296E0
1.176799029E1,4.728935367E0,-3.572059657E0,-7.184217179E0,9.313185082E0
1.177791029E1,3.678700299E0,-4.300602554E0,-9.911069123E0,1.141303244E1
1.178783129E1,2.595468223E0,-4.776661803E0,-1.216150455E1,1.332122916E1
1.179775129E1,1.754990030E0,-5.025929775E0,-1.404601304E1,1.502100005E1
1.180767229E1,9.606507540E-1,-5.099913425E0,-1.550767194E1,1.635297697E1
1.181759229E1,-1.468645155E-2,-5.063009309E0,-1.669389190E1,1.744477876E1
1.182751229E1,-6.868721303E-1,-4.917984327E0,-1.727688269E1,1.797634665E1
1.183743329E1,-7.709268786E-1,-4.741515943E0,-1.706472934E1,1.772798040E1
1.184735329E1,-5.601280300E-1,-4.592406974E0,-1.657911340E1,1.721252295E1
1.185727429E1,-2.992074336E-1,-4.392688015E0,-1.594375962E1,1.654051704E1
1.186719429E1,4.736602820E-2,-4.254587013E0,-1.522660915E1,1.580991399E1
1.187711529E1,4.006171565E-1,-4.124330344E0,-1.458589582E1,1.516307857E1
1.188703529E1,5.581542293E-1,-3.916203089E0,-1.389765047E1,1.444966682E1
1.189695629E1,5.917844901E-1,-3.723247896E0,-1.318890127E1,1.371713894E1
1.190687629E1,5.677615701E-1,-3.507518090E0,-1.236759785E1,1.286788689E1
1.191679629E1,4.667382751E-1,-3.342328693E0,-1.138574977E1,1.187536541E1
1.192671729E1,1.913651157E-1,-3.240747062E0,-1.020215638E1,1.070621581E1
1.193663729E1,-2.411404160E-1,-3.315431501E0,-8.742212468E0,9.352887980E0
1.194655829E1,-7.122651992E-1,-3.544667790E0,-7.173507419E0,8.033131404E0
1.195647829E1,-1.215978854E0,-3.732034507E0,-5.914538739E0,7.098482558E0
1.196639929E1,-1.672986339E0,-3.709898118E0,-5.361447102E0,6.731072899E0
1.197631929E1,-1.866787186E0,-3.491818316E0,-5.417254683E0,6.710017723E0
1.198624029E1,-1.748899570E0,-3.145785649E0,-5.715338135E0,6.754236230E0
1.199616029E1,-1.387002091E0,-2.745850424E0,-5.988297272E0,6.732248775E0
1.200608129E1,-9.385739335E-1,-2.230766566E0,-6.237403277E0,6.690473835E0
1.201600129E1,-4.873680559E-1,-1.739927895E0,-6.310940784E0,6.564514474E0
1.202592229E1,-7.292504836E-2,-1.561985428E0,-6.071044729E0,6.269186601E0
1.203584229E1,2.204466448E-1,-1.437470140E0,-5.339409531E0,5.533914643E0
1.204576229E1,4.792270872E-1,-1.218057174E0,-4.448270477E0,4.636855844E0
1.205568329E1,7.609357412E-1,-8.273523635E-1,-3.682095192E0,3.849851963E0
1.206560329E1,1.060245940E0,4.973583162E-2,-2.816474556E0,3.009837875E0
1.207552429E1,1.149983743E0,1.201845476E0,-1.285375291E0,2.102161934E0
1.208544429E1,8.043603806E-1,2.370628164E0,1.209356809E0,2.780182980E0
1.209536529E1,7.841361042E-2,4.184396744E0,3.746342643E0,5.616974988E0
1.210528529E1,-8.806321925E-1,6.496705656E0,6.434155067E0,9.185915788E0
1.211520629E1,-1.692607841E0,8.572329803E0,1.015635280E1,1.339780810E1
1.212512629E1,-1.726876617E0,9.385682763E0,1.551695615E1,1.821672506E1
1.213504629E1,-1.483404697E0,9.027078289E0,2.125909851E1,2.314385234E1
1.214496729E1,-1.089489765E0,8.455602422E0,2.611863758E1,2.747485085E1
1.215488729E1,2.006518829E-1,7.802212325E0,2.995520627E1,3.095527678E1
1.216480829E1,2.430342561E0,5.903775185E0,3.339861051E1,3.400335734E1
1.217472829E1,4.154844039E0,4.369022286E0,3.454810294E1,3.507025095E1
1.218464929E1,4.325041577E0,3.556203762E0,3.172703423E1,3.221734426E1
1.219456929E1,3.004243854E0,2.567620859E0,2.726676176E1,2.755166882E1
1.220449029E1,1.242092885E0,1.879429889E0,2.236172434E1,2.247491417E1
1.221441029E1,2.477687466E-1,1.651762116E0,1.667481127E1,1.675825284E1
1.222433129E1,2.642623167E-1,1.650884156E0,1.068810678E1,1.081808114E1
1.223425129E1,9.804080571E-1,1.445166246E0,5.409284343E0,5.684194098E0
1.224417129E1,1.783138526E0,9.188861391E-1,1.570025935E0,2.547335113E0
1.225409229E1,2.615863604E0,2.227736539E-1,-1.264018920E0,2.913780075E0
1.226401229E1,3.104175108E0,-3.712987787E-1,-3.670491977E0,4.821439333E0
1.227393329E1,2.858587373E0,-7.373961666E-1,-6.027671252E0,6.711787810E0
1.228385329E1,1.817978868E0,-1.033137517E0,-8.344358559E0,8.602368282E0
1.229377429E1,4.707388669E-1,-1.344317271E0,-1.037175253E1,1.046909904E1
1.230369429E1,-6.678818357E-1,-1.646449628E0,-1.185853926E1,1.199090555E1
1.231361529E1,-1.618412229E0,-1.963640027E0,-1.258029266E1,1.283506540E1
1.232353529E1,-2.449473774E0,-2.278478968E0,-1.251720939E1,1.295653963E1
1.233345529E1,-3.022162938E0,-2.553665309E0,-1.203603968E1,1.266968533E1
1.234337629E1,-3.370662839E0,-2.799727546E0,-1.156576449E1,1.236797278E1
1.235329629E1,-3.316954116E0,-2.889002250E0,-1.162651706E1,1.243078508E1
1.236321729E1,-2.806974000E0,-2.726654600E0,-1.226072712E1,1.287008850E1
1.237313729E1,-2.016830832E0,-2.408662547E0,-1.294981564E1,1.332542634E1
1.238305829E1,-1.120613910E0,-2.214308408E0,-1.312193662E1,1.335455570E1
1.239297829E1,-2.664191353E-1,-2.259940371E0,-1.274024792E1,1.294187880E1
1.240289929E1,1.834832152E-1,-2.373264673E0,-1.219494127E1,1.242508124E1
1.241281929E1,1.552067381E-1,-2.653207139E0,-1.173174824E1,1.202902797E1
1.242274029E1,-1.291661175E-1,-3.061793612E0,-1.117123531E1,1.158394416E1
1.243266029E1,-4.516959108E-1,-3.362621455E0,-1.024061703E1,1.078802528E1
1.244258029E1,-7.222827221E-1,-3.563701939E0,-9.234218243E0,9.924336270E0
1.245250129E1,-8.697072548E-1,-3.697987632E0,-8.574352355E0,9.378220596E0
1.246242129E1,-8.376762074E-1,-3.647073002E0,-8.217824228E0,9.029699771E0
1.247234242E1,-6.263123716E-1,-3.493815140E0,-7.904684195E0,8.665047238E0
1.248226242E1,-3.498402647E-1,-3.364519169E0,-7.508055278E0,8.234881390E0
1.249218342E1,-1.414370934E-1,-3.277714621E0,-7.137444717E0,7.855350703E0
1.250210342E1,8.336711571E-2,-3.123934604E0,-6.900379298E0,7.575034782E0
1.251202442E1,3.485582992E-1,-2.746539518E0,-6.641242395E0,7.195211794E0
1.252194442E1,5.384524747E-1,-2.483460422E0,-6.187407244E0,6.688909862E0
1.253186542E1,6.767877299E-1,-2.346778394E0,-5.604030538E0,6.113147204E0
1.254178542E1,1.015046963E0,-2.068073491E0,-4.896993408E0,5.411819725E0
1.255170542E1,1.527663880E0,-1.499109149E0,-3.827233610E0,4.385065823E0
1.256162642E1,1.928061913E0,-7.362653151E-1,-2.066262755E0,2.920436804E0
1.257154642E1,1.780395744E0,-5.090732127E-3,8.070601863E-1,1.954784148E0
1.258146742E1,1.080786331E0,2.717540252E-1,4.452129639E0,4.589488824E0
1.259138742E1,-2.855097462E-1,8.630987316E-1,8.074734675E0,8.125748907E0
1.260130842E1,-1.859171772E0,2.042196785E0,1.081022471E1,1.115742110E1
1.261122842E1,-2.880740719E0,3.593238272E0,1.257900277E1,1.339557162E1
1.262114942E1,-2.957850291E0,5.808286060E0,1.424878045E1,1.566884838E1
1.263106942E1,-2.346801783E0,7.429714867E0,1.694410128E1,1.864968391E1
1.264099042E1,-1.926139640E0,7.602975469E0,1.973238348E1,2.123398709E1
1.265091042E1,-1.588056847E0,7.977893089E0,2.135975014E1,2.285623829E1
1.266083042E1,-4.394429973E-1,7.557111079E0,2.235082279E1,2.359793036E1
1.267075142E1,6.490339208E-1,5.978403783E0,2.390645346E1,2.465118808E1
1.268067142E1,9.015068986E-1,4.621574932E0,2.598282781E1,2.640604117E1
1.269059242E1,5.581561296E-1,2.645554888E0,2.837938866E1,2.850789715E1
1.270051242E1,-9.468454778E-1,1.590145911E-1,2.864835591E1,2.866443961E1
1.271043342E1,-2.780754501E0,-1.105187201E0,2.447140442E1,2.465367455E1
1.272035342E1,-3.379050669E0,-5.545052013E-1,1.765396261E1,1.798298795E1
1.273027442E1,-2.280424045E0,-9.223412588E-2,1.128556124E1,1.151402334E1
1.274019442E1,-5.635497110E-1,-3.401296109E-2,5.735143824E0,5.762865593E0
1.275011442E1,1.173803107E0,-6.523621559E-2,4.897469956E-1,1.273546865E0
1.276003542E1,2.627437583E0,-1.316006514E-1,-4.269074367E0,5.014553114E0
1.276995542E1,2.999336870E0,-2.134236637E-1,-8.189993235E0,8.724537840E0
1.277987642E1,2.543475951E0,-7.733837324E-1,-1.106610121E1,1.138094848E1
1.278979642E1,1.637589342E0,-1.373506571E0,-1.322388750E1,1.339549999E1
1.279971742E1,4.625680409E-1,-1.728491326E0,-1.475542999E1,1.486352467E1
1.280963742E1,-6.708016428E-1,-1.938826490E0,-1.567517596E1,1.580886348E1
1.281955842E1,-1.371587808E0,-1.986953168E0,-1.607555353E1,1.625584994E1
1.282947842E1,-1.590150004E0,-1.910138004E0,-1.609228475E1,1.628308425E1
1.283939942E1,-1.373738121E0,-1.845034228E0,-1.585090233E1,1.601694142E1
1.284931942E1,-1.012369230E0,-1.789110288E0,-1.546371725E1,1.559975507E1
1.285923942E1,-5.776205604E-1,-1.731606138E0,-1.491825389E1,1.502951778E1
1.286916042E1,4.554655742E-2,-1.719311490E0,-1.408826970E1,1.419286615E1
1.287908042E1,5.319323542E-1,-1.726927781E0,-1.307095826E1,1.319527117E1
1.288900142E1,7.680917099E-1,-1.769088837E0,-1.193482320E1,1.208965033E1
1.289892142E1,8.023949853E-1,-1.945060207E0,-1.074188479E1,1.094601232E1
1.290884242E1,7.965935241E-1,-2.140568587E0,-9.552178720E0,9.821441514E0
1.291876242E1,7.130764273E-1,-2.295477994E0,-8.461023960E0,8.795829902E0
1.292868342E1,5.092929219E-1,-2.480442674E0,-7.553067144E0,7.966228620E0
1.293860342E1,2.100747075E-1,-2.639661187E0,-6.861171963E0,7.354428820E0
1.294852442E1,-5.321105115E-2,-2.756743202E0,-6.433932288E0,6.999853511E0
1.295844442E1,-1.031353093E-1,-2.809936785E0,-6.375371838E0,6.967908416E0
1.296836442E1,2.495920546E-3,-2.715427653E0,-6.475061018E0,7.021393648E0
1.297828542E1,2.841231887E-1,-2.607772227E0,-6.738041881E0,7.230657671E0
1.298820542E1,6.103769548E-1,-2.363692196E0,-7.195527449E0,7.598369305E0
1.299812642E1,9.533417344E-1,-2.089733040E0,-7.562116295E0,7.903255500E0
1.300804642E1,1.200585182E0,-1.939995056E0,-7.599301663E0,7.934379079E0
1.301796742E1,1.359155604E0,-1.929263369E0,-7.262496194E0,7.636308799E0
1.302788742E1,1.432481150E0,-1.809145918E0,-6.848048472E0,7.226394611E0
1.303780842E1,1.506532335E0,-1.621342853E0,-6.227504525E0,6.609100161E0
1.304772842E1,1.574292940E0,-1.485633363E0,-5.442571957E0,5.857225816E0
1.305764942E1,1.525885304E0,-1.117411390E0,-4.318226647E0,4.714235415E0
1.306756942E1,1.384126577E0,-4.620823565E-1,-2.721108223E0,3.087678164E0
1.307748942E1,1.194659102E0,6.066278663E-1,-5.986665899E-1,1.467518117E0
1.308741042E1,5.902262802E-1,1.856469627E0,1.946514702E0,2.753863835E0
1.309733042E1,-8.142539426E-1,3.477103798E0,4.234081705E0,5.539016898E0
1.310725142E1,-2.270314063E0,5.792481036E0,6.152408735E0,8.749816897E0
1.311717142E1,-3.036026394E0,8.653247082E0,8.258681062E0,1.234106779E1
1.312709242E1,-2.932191539E0,1.104716207E1,1.161597337E1,1.629626872E1
1.313701242E1,-2.524209083E0,1.174447645E1,1.612200147E1,2.010530502E1
1.314693342E1,-1.762651052E0,1.165394518E1,2.100491069E1,2.408583920E1
1.315685342E1,2.460644660E-1,1.070822120E1,2.645252762E1,2.853879407E1
1.316677442E1,1.727891840E0,6.992132637E0,3.253043698E1,3.331823614E1
1.317669442E1,1.391329469E0,3.102019240E0,3.540282554E1,3.556569101E1
1.318661442E1,4.651902613E-1,6.004970607E-1,3.371190901E1,3.372046571E1
1.319653542E1,-2.025055599E-1,-8.220157559E-1,2.902424066E1,2.903658492E1
1.320645542E1,-4.326085158E-1,-1.436997978E0,2.294776737E1,2.299678544E1
1.321637642E1,-1.092311412E-1,-2.063174402E0,1.659126625E1,1.671941195E1
1.322629642E1,5.469757051E-1,-2.292584061E0,1.144295192E1,1.168316193E1
1.323621742E1,6.978698659E-1,-2.563074941E0,8.290494593E0,8.705669193E0
1.324613742E1,4.806411266E-1,-3.824989448E0,6.302089854E0,7.387685476E0
1.325605842E1,6.937560573E-1,-5.111759884E0,4.663214124E0,6.953916346E0
1.326597842E1,1.216618028E0,-5.810859420E0,2.346536758E0,6.383767021E0
1.327589842E1,1.843728252E0,-5.888743747E0,-7.043433183E-1,6.210695315E0
1.328581942E1,2.058196521E0,-5.269973845E0,-4.118279353E0,6.997786942E0
1.329573942E1,2.219995410E0,-4.513184219E0,-7.375888909E0,8.927538776E0
1.330566042E1,2.421295895E0,-3.736226960E0,-1.024150463E1,1.116738478E1
1.331558042E1,2.446675588E0,-2.898406619E0,-1.272488261E1,1.327816327E1
1.332550142E1,2.257289536E0,-2.206954365E0,-1.491038939E1,1.524092239E1
1.333542142E1,1.864530306E0,-1.864675025E0,-1.653997682E1,1.674886024E1
1.334534242E1,1.365802865E0,-1.653052596E0,-1.723105222E1,1.736396155E1
1.335526242E1,9.554533102E-1,-1.562744982E0,-1.696851223E1,1.706708734E1
1.336518342E1,6.172148350E-1,-1.709745737E0,-1.616199409E1,1.626389367E1
1.337510342E1,2.172277160E-1,-1.949178109E0,-1.514091587E1,1.526741027E1
1.338502442E1,-5.339070685E-2,-2.236633370E0,-1.422675749E1,1.440159742E1
1.339494442E1,-1.122496567E-1,-2.424945289E0,-1.355443996E1,1.377010538E1
1.340486442E1,-5.156111307E-2,-2.488234966E0,-1.296526165E1,1.320196884E1
1.341478542E1,1.232214087E-1,-2.408781830E0,-1.247843183E1,1.270939315E1
1.342470542E1,4.086437025E-1,-2.290223393E0,-1.200389285E1,1.222724648E1
1.343462642E1,7.173729613E-1,-2.142320120E0,-1.133040237E1,1.155344872E1
1.344454642E1,7.894468378E-1,-2.015269187E0,-1.083305107E1,1.104715039E1
1.345446742E1,6.933510645E-1,-1.985353078E0,-1.031534444E1,1.052752077E1
1.346438742E1,4.159737720E-1,-2.126071292E0,-9.417431974E0,9.663396831E0
1.347431171E1,4.475192081E-2,-2.244970622E0,-8.490777517E0,8.782664668E0
1.348423171E1,-4.291582201E-1,-2.286831716E0,-7.531469868E0,7.882690813E0
1.349415271E1,-8.854022048E-1,-2.190321229E0,-6.855919409E0,7.251556736E0
1.350407271E1,-1.028343970E0,-1.905718386E0,-6.267670804E0,6.631210386E0
1.351399271E1,-9.043604129E-1,-1.535175652E0,-5.512021092E0,5.792841147E0
1.352391371E1,-7.487154990E-1,-1.266268490E0,-4.862134647E0,5.079799613E0
1.353383371E1,-5.957163772E-1,-8.695663369E-1,-4.266391665E0,4.394669664E0
1.354375471E1,-3.424133871E-1,-4.104724923E-1,-3.354358170E0,3.396682695E0
1.355367471E1,3.317332285E-1,-1.678848173E-1,-1.904498949E0,1.940450590E0
1.356359571E1,9.039739119E-1,2.621954356E-1,1.234277058E-1,9.492890384E-1
1.357351571E1,7.499811289E-1,7.610499081E-1,3.358989750E0,3.524837698E0
1.358343671E1,2.289045326E-1,6.539612232E-1,6.766495602E0,6.801876601E0
1.359335671E1,-8.281933393E-1,1.096019351E0,1.018985033E1,1.028203348E1
1.360327771E1,-2.207106977E0,2.175398258E0,1.312748563E1,1.348831189E1
1.361319771E1,-3.570563062E0,3.745451235E0,1.494071422E1,1.581145999E1
1.362311771E1,-4.558177081E0,6.441703237E0,1.671683872E1,1.848581120E1
1.363303871E1,-4.523911521E0,8.131580721E0,1.981292537E1,2.188927574E1
1.364295871E1,-4.347574992E0,8.485705057E0,2.335981364E1,2.523072516E1
1.365287971E1,-3.664690370E0,8.354578907E0,2.602851093E1,2.758101386E1
1.366279971E1,-2.088204870E0,7.198169221E0,2.711665204E1,2.813337977E1
1.367272071E1,-3.095526199E-1,5.927335956E0,2.740429061E1,2.803969112E1
1.368264071E1,1.082103416E0,5.536847200E0,2.632654351E1,2.692423663E1
1.369256171E1,1.531388995E0,4.278332264E0,2.480700186E1,2.521976646E1
1.370248171E1,7.071404801E-1,2.672766953E0,2.306356797E1,2.322868697E1
1.371240271E1,-6.269558577E-1,1.310112813E0,1.968212082E1,1.973563653E1
1.372232271E1,-2.038541398E0,2.790753239E-1,1.443921490E1,1.458507666E1
1.373224271E1,-2.654612517E0,-8.894433618E-1,8.931414918E0,9.359927860E0
1.374216371E1,-2.046202127E0,-1.953545979E0,4.168592305E0,5.037901036E0
1.375208371E1,-4.980903876E-1,-3.038035790E0,3.900689256E-1,3.103209510E0
1.376200471E1,1.219635703E0,-4.074486632E0,-3.293032572E0,5.378941911E0
1.377192471E1,2.572776349E0,-4.134172963E0,-7.621445653E0,9.044169286E0
1.378184571E1,3.743762267E0,-3.703195454E0,-1.169037100E1,1.282162964E1
1.379176571E1,4.375810611E0,-3.209008083E0,-1.494424360E1,1.589892663E1
1.380168671E1,4.476585911E0,-3.163138431E0,-1.743995569E1,1.828106454E1
1.381160671E1,3.896318170E0,-3.429154876E0,-1.943728621E1,2.011836210E1
1.382152771E1,2.794872310E0,-3.606331065E0,-2.068547028E1,2.118267253E1
1.383144771E1,1.650244178E0,-3.839277704E0,-2.066275034E1,2.108109605E1
1.384136871E1,8.289516500E-1,-4.125359747E0,-1.960471304E1,2.005119765E1
1.385128871E1,2.849953374E-1,-4.208834597E0,-1.815338500E1,1.863708394E1
1.386120871E1,1.263003697E-1,-4.034567690E0,-1.687835752E1,1.735432629E1
1.387112971E1,3.412030866E-1,-3.695686752E0,-1.573549350E1,1.616725938E1
1.388104971E1,8.563598156E-1,-3.291330448E0,-1.452247458E1,1.491537717E1
1.389097071E1,1.345755978E0,-2.806133171E0,-1.314565644E1,1.350902386E1
1.390089071E1,1.818252811E0,-2.420873288E0,-1.152096313E1,1.191214767E1
1.391081171E1,2.422436248E0,-2.134216464E0,-9.814532762E0,1.033189869E1
1.392073171E1,2.670250019E0,-1.883226194E0,-8.312098886E0,8.931280084E0
1.393065271E1,2.293971897E0,-1.978856821E0,-7.097877778E0,7.717386237E0
1.394057271E1,1.691259473E0,-2.354880735E0,-6.098127277E0,6.752257265E0
1.395049371E1,1.083856412E0,-2.611416504E0,-5.344723481E0,6.046512215E0
1.396041371E1,5.527229699E-1,-2.624405217E0,-5.033907132E0,5.703790532E0
1.397033371E1,1.282582368E-1,-2.600058872E0,-5.365553602E0,5.963717110E0
1.398025471E1,-1.484273301E-1,-2.429436243E0,-6.078419822E0,6.547623894E0
1.399017471E1,-1.685653601E-1,-2.103433651E0,-6.785599040E0,7.106138314E0
1.400009571E1,3.490919307E-2,-1.882948305E0,-7.000895859E0,7.249776259E0
1.401001571E1,3.110761119E-1,-1.865024250E0,-6.735000159E0,6.995377827E0
1.401993671E1,2.709783921E-1,-1.831449245E0,-6.464339563E0,6.724233906E0
1.402985671E1,1.423240064E-1,-1.886985953E0,-5.986698058E0,6.278656365E0
1.403977771E1,7.053247735E-2,-1.745729649E0,-5.320392047E0,5.599921283E0
1.404969771E1,8.934223920E-2,-1.589820806E0,-4.471769852E0,4.746813441E0
1.405961871E1,4.061015524E-2,-1.227255136E0,-2.993730560E0,3.235773017E0
1.406953871E1,-1.872513802E-1,-6.034040040E-1,-1.271614453E0,1.419916473E0
1.407945971E1,-5.307168277E-1,1.067496926E-1,1.138813076E0,1.260932619E0
1.408937971E1,-1.306952393E0,1.018842537E0,4.393217188E0,4.695372395E0
1.409929971E1,-2.393569422E0,2.375819614E0,7.311043872E0,8.051400866E0
1.410922071E1,-3.913511908E0,4.013751603E0,9.519780468E0,1.104771458E1
1.411914071E1,-5.242145777E0,5.853175135E0,1.102755987E1,1.354056233E1
1.412906171E1,-4.854458130E0,7.351159279E0,1.323805882E1,1.590130522E1
1.413898171E1,-2.926249598E0,7.487531551E0,1.756797580E1,1.931993373E1
1.414890271E1,-4.141557631E-1,6.664028994E0,2.302384900E1,2.397245149E1
1.415882271E1,2.596240056E0,5.056962703E0,2.831858698E1,2.888348494E1
1.416874371E1,4.054128673E0,2.805219836E0,3.193730478E1,3.231557913E1
1.417866371E1,3.400752610E0,3.809741664E-1,3.330799270E1,3.348331880E1
1.418858471E1,2.034930450E0,-1.369686732E0,3.199910751E1,3.209298779E1
1.419850471E1,3.871180551E-1,-1.850975437E0,2.826371437E1,2.832690453E1
1.420842571E1,-1.339338805E0,-1.324587888E0,2.340480680E1,2.348048855E1
1.421834571E1,-2.334111863E0,-8.544992316E-1,1.838645151E1,1.855370168E1
1.422826571E1,-2.694834052E0,-4.182703391E-1,1.369913633E1,1.396794247E1
1.423818671E1,-2.429196945E0,-2.507202749E-1,9.703988811E0,1.000656071E1
1.424810671E1,-1.526583023E0,-7.891241446E-1,6.228109712E0,6.460845396E0
1.425802771E1,-5.348284435E-1,-1.382010762E0,2.885773417E0,3.244022723E0
1.426794771E1,2.833438279E-1,-1.855598977E0,-2.631416613E-1,1.895461638E0
1.427786871E1,8.658399063E-1,-2.087045075E0,-3.226293038E0,3.938832651E0
1.428778871E1,1.226800515E0,-1.895768033E0,-6.240960138E0,6.636908872E0
1.429770971E1,1.554430095E0,-1.753996881E0,-8.978120137E0,9.278976192E0
1.430762971E1,1.692909557E0,-1.480390019E0,-1.140679507E1,1.162636965E1
1.431755071E1,1.629937383E0,-1.171297283E0,-1.327011793E1,1.342105298E1
1.432747071E1,1.642455687E0,-1.080652138E0,-1.467338887E1,1.480451994E1
1.433739171E1,1.610608827E0,-1.055247740E0,-1.542012041E1,1.553987523E1
1.434731171E1,1.604586049E0,-1.071000577E0,-1.568556763E1,1.580375811E1
1.435723171E1,1.422381400E0,-9.838946056E-1,-1.576708016E1,1.586165294E1
1.436715271E1,1.188993004E0,-1.043122222E0,-1.599804518E1,1.607604609E1
1.437707271E1,1.061939513E0,-1.177635957E0,-1.629534802E1,1.637232144E1
1.438699371E1,1.056402565E0,-1.133182792E0,-1.621532303E1,1.628916175E1
1.439691371E1,1.106476877E0,-1.183348102E0,-1.553457381E1,1.561882157E1
1.440683471E1,1.132200167E0,-1.375327687E0,-1.438765883E1,1.449752152E1
1.441675471E1,9.875689960E-1,-1.531578737E0,-1.290178544E1,1.302985393E1
1.442667571E1,8.851662697E-1,-1.790179451E0,-1.112555803E1,1.130337575E1
1.443659571E1,7.625070342E-1,-2.133069971E0,-9.207365490E0,9.481929326E0
1.444651671E1,4.664728846E-1,-2.461723398E0,-7.379876710E0,7.793603742E0
1.445643671E1,7.547933143E-2,-2.778840707E0,-5.975764350E0,6.590706515E0
1.446635542E1,-2.551657668E-1,-2.931260662E0,-5.050179933E0,5.844802477E0
1.447627542E1,-6.059958920E-1,-2.900943141E0,-4.683142020E0,5.542068324E0
1.448619642E1,-8.697517667E-1,-2.837266086E0,-4.775677716E0,5.622601233E0
1.449611642E1,-9.387121470E-1,-2.783885100E0,-5.009468694E0,5.807406765E0
1.450603642E1,-8.312860778E-1,-2.658142481E0,-5.374224438E0,6.053019602E0
1.451595742E1,-4.774458425E-1,-2.374681307E0,-5.772685872E0,6.260269006E0
1.452587742E1,-8.301986419E-2,-2.039350652E0,-6.326267506E0,6.647368196E0
1.453579842E1,1.261582093E-1,-1.912057645E0,-7.003355198E0,7.260775741E0
1.454571842E1,8.873478658E-2,-1.665903753E0,-7.568579807E0,7.750258672E0
1.455563942E1,1.634849702E-1,-1.340362360E0,-7.607501214E0,7.726407529E0
1.456555942E1,6.820955399E-1,-1.087372927E0,-6.441048934E0,6.567704742E0
1.457548042E1,1.789885629E0,-7.370495729E-1,-3.659790988E0,4.140169406E0
1.458540042E1,2.677908702E0,9.146404758E-2,1.223354459E-1,2.682261480E0
1.459532142E1,2.613410989E0,1.145825788E0,3.904416856E0,4.836042258E0
1.460524142E1,1.781970837E0,2.199509690E0,7.166121216E0,7.704969580E0
1.461516242E1,6.478521254E-1,2.920100959E0,1.077316389E1,1.118068701E1
1.462508242E1,-9.278708976E-2,4.138209296E0,1.421485958E1,1.480525645E1
1.463500242E1,1.495539424E-1,5.446929302E0,1.705458208E1,1.790391508E1
1.464492342E1,1.439194631E0,6.494833962E0,2.007182605E1,2.114550426E1
1.465484342E1,2.608162529E0,7.145753025E0,2.363647816E1,2.483037249E1
1.466476442E1,3.763488142E0,6.286484805E0,2.692065571E1,2.789991824E1
1.467468442E1,4.297656727E0,4.146868145E0,2.855298314E1,2.917086243E1
1.468460542E1,3.384941154E0,2.480367245E0,2.815991225E1,2.847087471E1
1.469452542E1,1.345108399E0,9.326744583E-1,2.691929214E1,2.696900976E1
1.470444642E1,-1.237583658E0,-3.419590585E-1,2.512655219E1,2.515933573E1
1.471436642E1,-3.101376338E0,-5.051099700E-1,2.173846026E1,2.196438767E1
1.472428742E1,-3.525774267E0,-5.482758701E-2,1.689543256E1,1.725948237E1
1.473420742E1,-2.677071088E0,4.675910184E-1,1.162549965E1,1.193891088E1
1.474412842E1,-1.341303616E0,7.771822299E-1,6.716230597E0,6.892812274E0
1.475404842E1,-1.940668583E-1,6.842044844E-1,2.126914753E0,2.242668966E0
1.476396942E1,2.964948737E-1,4.163542065E-1,-2.224486071E0,2.282454450E0
1.477388942E1,2.751692742E-1,-6.475645155E-2,-5.818365490E0,5.825228623E0
1.478380942E1,-3.098523628E-1,-5.444960837E-1,-8.404354500E0,8.427672219E0
1.479373042E1,-1.096387799E0,-9.552170826E-1,-1.012054796E1,1.022448028E1
1.480365042E1,-1.767835194E0,-1.411446669E0,-1.169195676E1,1.190878986E1
1.481357142E1,-2.463113866E0,-1.804030189E0,-1.352555121E1,1.386585700E1
1.482349142E1,-2.839302379E0,-1.866030702E0,-1.503107943E1,1.541029063E1
1.483341242E1,-2.684554062E0,-1.623192474E0,-1.570403782E1,1.601431822E1
1.484333242E1,-2.271843402E0,-1.265353255E0,-1.588946589E1,1.610085456E1
1.485325342E1,-1.710880974E0,-1.033203737E0,-1.586404570E1,1.598945183E1
1.486317342E1,-9.584061541E-1,-8.198128174E-1,-1.521139937E1,1.526359415E1
1.487309442E1,-3.997941609E-1,-7.241421367E-1,-1.401753008E1,1.404191464E1
1.488301442E1,-8.079430427E-2,-7.813467631E-1,-1.281213476E1,1.283619210E1
1.489293542E1,3.526302271E-2,-7.916026331E-1,-1.154016188E1,1.156733393E1
1.490285542E1,1.076605426E-1,-1.032053589E0,-9.808685546E0,9.863419161E0
1.491277642E1,3.553974219E-2,-1.323002708E0,-8.193229669E0,8.299434418E0
1.492269642E1,-1.228949513E-1,-1.534701882E0,-7.022660365E0,7.189448632E0
1.493261642E1,-2.465785093E-1,-1.645386312E0,-6.249759028E0,6.467424911E0
1.494253742E1,-3.967337647E-1,-1.816811472E0,-5.839258177E0,6.128224674E0
1.495245742E1,-4.925960514E-1,-1.876279702E0,-5.725010599E0,6.044735127E0
1.496237842E1,-5.279786862E-1,-1.780467811E0,-5.955715417E0,6.238539352E0
1.497229842E1,-4.722613722E-1,-1.610142073E0,-6.291461955E0,6.511380946E0
1.498221942E1,-4.635697420E-1,-1.452698337E0,-6.815996960E0,6.984485945E0
1.499213942E1,-3.209214344E-1,-1.315367121E0,-7.419487503E0,7.542014057E0
1.500206042E1,3.210349800E-2,-1.122749678E0,-7.658819302E0,7.740743541E0
1.501198042E1,3.903850407E-1,-8.833710283E-1,-7.699070365E0,7.759409084E0
1.502190142E1,6.488690293E-1,-7.181936181E-1,-7.812867706E0,7.872593911E0
1.503182142E1,7.587092677E-1,-6.169227666E-1,-7.901724334E0,7.962002318E0
1.504174242E1,7.465365341E-1,-4.877281713E-1,-7.845883425E0,7.896396791E0
1.505166242E1,6.511261276E-1,-4.347546633E-1,-7.721261133E0,7.760853712E0
1.506158342E1,6.850784238E-1,-2.647306421E-1,-7.176423426E0,7.213907952E0
1.507150342E1,8.390364891E-1,-6.773290358E-2,-6.137876065E0,6.195328285E0
1.508142342E1,6.647031431E-1,1.999594995E-1,-4.805647035E0,4.855518252E0
1.509134442E1,4.723873432E-1,7.753728821E-1,-2.538397937E0,2.695888906E0
1.510126442E1,1.310141209E-1,1.283990377E0,1.082959303E0,1.684813592E0
1.511118542E1,-5.603685699E-1,1.884876424E0,4.519389576E0,4.928656431E0
1.512110542E1,-1.386354220E0,2.963169210E0,7.284088207E0,7.985004121E0
1.513102642E1,-1.615105044E0,4.371270833E0,1.089006142E1,1.184525267E1
1.514094642E1,-3.854245553E-1,5.407643030E0,1.682331651E1,1.767526899E1
1.515086742E1,1.856652938E0,5.570493833E0,2.339884498E1,2.412433435E1
1.516078742E1,3.547542281E0,4.883305660E0,2.834182615E1,2.897741948E1
1.517070842E1,4.883931020E0,2.863754557E0,3.138269404E1,3.188929848E1
1.518062842E1,5.501289112E0,-1.363249824E-1,3.392533939E1,3.436875644E1
1.519054942E1,4.545072009E0,-2.829707975E0,3.526863662E1,3.567270183E1
1.520046942E1,1.878304885E0,-4.198586767E0,3.333206920E1,3.364792709E1
1.521039042E1,-1.018581751E0,-4.275442277E0,2.848239555E1,2.881950333E1
1.522031042E1,-2.228935364E0,-3.334605691E0,2.217867140E1,2.253843857E1
1.523023142E1,-1.470409553E0,-1.493398173E0,1.543709137E1,1.557870766E1
1.524015142E1,6.589384463E-1,4.568414971E-1,9.186751131E0,9.221675573E0
1.525007142E1,3.191606185E0,1.840760059E0,4.191623903E0,5.580722048E0
1.525999242E1,4.528449252E0,2.205294633E0,-3.527332842E-2,5.037005187E0
1.526991242E1,4.662710972E0,1.448495358E0,-3.695972974E0,6.123661374E0
1.527983342E1,3.694004801E0,4.120715596E-1,-6.457024696E0,7.450412228E0
1.528975342E1,2.321185862E0,-5.543036185E-1,-8.604983579E0,8.929775960E0
1.529967442E1,1.127749705E0,-1.245183723E0,-1.040307958E1,1.053785398E1
1.530959442E1,-2.155488342E-2,-1.653855419E0,-1.202598013E1,1.213918862E1
1.531951542E1,-1.270112742E0,-1.765530660E0,-1.374702853E1,1.391801273E1
1.532943542E1,-2.322673686E0,-1.775838862E0,-1.548533558E1,1.575893508E1
1.533935642E1,-2.391048979E0,-1.386273382E0,-1.587592491E1,1.611470945E1
1.534927642E1,-1.896390907E0,-1.025537598E0,-1.537582659E1,1.552623808E1
1.535919742E1,-1.509859840E0,-9.167350946E-1,-1.495091644E1,1.505489895E1
1.536911742E1,-1.311007730E0,-8.075057441E-1,-1.443190238E1,1.451380767E1
1.537903842E1,-1.313312117E0,-6.889956929E-1,-1.377900462E1,1.385858838E1
1.538895842E1,-1.294869415E0,-5.498185118E-1,-1.284795130E1,1.292473751E1
1.539887942E1,-1.149827038E0,-4.163365918E-1,-1.177422007E1,1.183755450E1
1.540879942E1,-8.969516983E-1,-2.625064344E-1,-1.067328292E1,1.071412153E1
1.541871942E1,-5.115381065E-1,-1.783343764E-1,-9.485010585E0,9.500468419E0
1.542864042E1,-1.524245781E-1,-1.446417696E-1,-8.331702261E0,8.334351628E0
1.543856042E1,1.170967792E-1,-7.527025692E-2,-7.376737924E0,7.378051211E0
1.544848142E1,2.226874805E-1,-6.299059242E-2,-6.667771212E0,6.671786153E0
1.545840142E1,6.894137688E-2,-2.427549054E-1,-6.202034054E0,6.207165961E0
1.546832142E1,-4.576415789E-1,-5.075829037E-1,-6.139417391E0,6.177339404E0
1.547824142E1,-1.079945063E0,-6.720345283E-1,-6.599996136E0,6.721447816E0
1.548816242E1,-1.129646031E0,-5.791178130E-1,-6.830265920E0,6.947230393E0
1.549808242E1,-8.118518333E-1,-4.885532865E-1,-6.884790037E0,6.949684997E0
1.550800342E1,-5.137666997E-1,-3.992286620E-1,-6.904787514E0,6.935375286E0
1.551792342E1,-2.923453606E-1,-3.461881303E-1,-6.920523541E0,6.935341240E0
1.552784442E1,-1.056632799E-1,-2.914363378E-1,-6.767231766E0,6.774328427E0
1.553776442E1,4.791661665E-2,-2.095628203E-1,-6.270000919E0,6.273685050E0
1.554768542E1,-4.062674671E-2,-2.057006612E-1,-5.825176912E0,5.828949249E0
1.555760542E1,-4.189052371E-1,-1.977319296E-1,-5.535528653E0,5.554876864E0
1.556752642E1,-2.823156316E-1,-1.900492729E-1,-4.574552209E0,4.587193996E0
1.557744642E1,1.302937257E-1,-3.029639773E-2,-2.603194442E0,2.606629170E0
1.558736642E1,8.277709510E-1,1.147880792E-1,5.374854183E-1,9.936154313E-1
1.559728742E1,1.162134476E0,2.385248834E-1,4.073790813E0,4.243020416E0
1.560720742E1,9.001654011E-1,5.879042047E-1,6.788906225E0,6.873512700E0
1.561712842E1,7.939843503E-1,1.789960034E0,9.307608401E0,9.511358589E0
1.562704842E1,1.475411407E0,3.257312809E0,1.225735913E1,1.276831149E1
1.563696942E1,2.700047722E0,4.272451134E0,1.508778456E1,1.591179874E1
1.564688942E1,4.489051006E0,4.863590019E0,1.769137544E1,1.888890817E1
1.565681042E1,5.705887865E0,4.842611086E0,2.050050414E1,2.182381058E1
1.566673042E1,5.978548209E0,4.099849514E0,2.380333197E1,2.488273332E1
1.567665142E1,5.477125493E0,2.153276194E0,2.754517576E1,2.816686368E1
1.568657142E1,3.579087718E0,4.805534184E-3,3.114299328E1,3.134798115E1
1.569649242E1,-2.072815291E-1,-2.403893850E0,3.435856896E1,3.444318412E1
1.570641242E1,-4.390559628E0,-4.693013290E0,3.519951083E1,3.578137715E1
1.571633342E1,-6.274284005E0,-4.742526342E0,3.089255703E1,3.187802183E1
1.572625342E1,-5.204584433E0,-2.617654021E0,2.272848509E1,2.346324458E1
1.573617442E1,-2.676634593E0,-5.335590130E-1,1.469961247E1,1.495084160E1
1.574609442E1,-3.658188412E-1,8.323564106E-1,7.742723923E0,7.795922932E0
1.575601442E1,1.562904172E0,1.548522068E0,1.905740898E0,2.910745337E0
1.576593542E1,2.736948623E0,1.551009181E0,-3.104573888E0,4.419829892E0
1.577585542E1,2.819923244E0,1.011358685E0,-7.459732718E0,8.038807481E0
1.578577642E1,2.275038905E0,1.376145127E-1,-1.077478357E1,1.101320574E1
1.579569642E1,1.459975196E0,-6.983253640E-1,-1.287566593E1,1.297697804E1
1.580561742E1,5.289200148E-1,-1.223272598E0,-1.427990401E1,1.434195979E1
1.581553742E1,-1.915544193E-1,-1.420674598E0,-1.550276964E1,1.556890734E1
1.582545842E1,-4.207362926E-1,-1.552539982E0,-1.672161589E1,1.679880464E1
1.583537842E1,-2.731704949E-1,-1.376728095E0,-1.753645697E1,1.759253607E1
1.584529942E1,2.872966736E-1,-1.140127238E0,-1.776730855E1,1.780616979E1
1.585521942E1,5.199824726E-1,-8.127308160E-1,-1.766094419E1,1.768727969E1
1.586514042E1,3.276998191E-1,-8.776430959E-1,-1.728138739E1,1.730676153E1
1.587506042E1,5.950503062E-2,-1.192526184E0,-1.665125401E1,1.669400849E1
1.588498142E1,1.459121868E-1,-1.280566102E0,-1.557188490E1,1.562513165E1
1.589490142E1,4.214363871E-1,-1.181476846E0,-1.444266125E1,1.449703281E1
1.590482242E1,7.873810165E-1,-1.057577563E0,-1.382834342E1,1.389105903E1
1.591474242E1,7.458122834E-1,-1.122078637E0,-1.281649562E1,1.288711978E1
1.592466342E1,2.035394024E-1,-1.563919395E0,-1.091081319E1,1.102420594E1
1.593458342E1,-4.009057897E-1,-2.274563965E0,-8.582395200E0,8.887737285E0
1.594450342E1,-1.081921203E0,-2.743464468E0,-6.960433127E0,7.559416650E0
1.595442442E1,-1.588145286E0,-3.096064435E0,-6.233512539E0,7.138942430E0
1.596434442E1,-1.944105357E0,-3.084564716E0,-6.381901424E0,7.350017069E0
1.597426542E1,-2.032771365E0,-2.922593919E0,-6.617486327E0,7.514309012E0
1.598418542E1,-1.753594738E0,-2.639847128E0,-6.535549294E0,7.263421504E0
1.599410642E1,-1.425595761E0,-2.220036633E0,-6.394800382E0,6.917684428E0
1.600402642E1,-1.160872940E0,-1.819860210E0,-6.638642723E0,6.980766030E0
1.601394742E1,-8.409521831E-1,-1.322089227E0,-7.022538743E0,7.195218613E0
1.602386742E1,-4.858243909E-1,-7.719167391E-1,-7.031725304E0,7.090630546E0
1.603378842E1,-8.354501724E-3,-4.793496229E-1,-6.522909368E0,6.540503993E0
1.604370842E1,3.420890129E-1,-3.054743332E-1,-5.959036635E0,5.976659358E0
1.605362942E1,8.201713248E-1,-1.822841705E-1,-5.501309577E0,5.565097985E0
1.606354942E1,9.825060381E-1,8.992549896E-2,-4.764326516E0,4.865409732E0
1.607347042E1,6.914843410E-1,3.579724625E-1,-3.362934866E0,3.451901764E0
1.608339042E1,2.993985645E-1,8.637395865E-1,-1.626946240E0,1.866183175E0
1.609331142E1,1.122592315E-1,1.937407956E0,-3.338701665E-2,1.940944722E0
1.610323142E1,-1.881218114E-1,3.718606376E0,1.683122195E0,4.086113498E0
1.611315242E1,-1.250712411E0,6.425442131E0,3.031041643E0,7.213723141E0
1.612307242E1,-2.336015570E0,9.848862934E0,4.916978606E0,1.125316615E1
1.613299342E1,-2.885636593E0,1.233739465E1,8.586094149E0,1.530552900E1
1.614291342E1,-2.668683549E0,1.106914877E1,1.388491640E1,1.795658180E1
1.615283342E1,-1.945482084E0,6.492239553E0,2.101886448E1,2.208453620E1
1.616275442E1,-4.169316921E-1,-3.669247324E-1,3.099533705E1,3.100031266E1
1.617267442E1,1.570127384E0,-7.067052426E0,3.999204081E1,4.064199624E1
1.618259542E1,2.743973175E0,-1.057105956E1,4.325576948E1,4.461320748E1
1.619251542E1,2.713469421E0,-1.154823220E1,4.115951928E1,4.283492279E1
1.620243642E1,2.009105345E0,-1.097011565E1,3.572781846E1,3.742802364E1
1.621235642E1,1.720322327E0,-9.994598937E0,2.928144330E1,3.098797248E1
1.622227742E1,2.138327349E0,-8.008348312E0,2.302132301E1,2.446808941E1
1.623219742E1,2.656503799E0,-5.327821519E0,1.692527324E1,1.794178277E1
1.624211842E1,2.937558406E0,-3.631017424E0,1.140317915E1,1.232258219E1
1.625203842E1,3.542899885E0,-2.787984875E0,6.465889075E0,7.882431147E0
1.626195942E1,4.581509811E0,-2.145328512E0,1.766950802E0,5.358617518E0
1.627187942E1,5.581301242E0,-1.566279916E0,-2.744881833E0,6.413932694E0
1.628180042E1,5.822270261E0,-9.392034593E-1,-6.709788135E0,8.933207204E0
1.629172042E1,5.274531750E0,-5.024065098E-1,-1.012558826E1,1.142806349E1
1.630164142E1,4.313661141E0,-2.059706564E-1,-1.330043691E1,1.398398078E1
1.631156142E1,3.040935717E0,-2.435410635E-1,-1.609426813E1,1.638084457E1
1.632148242E1,1.463474170E0,-3.007921752E-1,-1.847785050E1,1.853815503E1
1.633140242E1,2.607951371E-1,-1.296469505E-1,-1.973159762E1,1.973374691E1
1.634132342E1,-4.563805538E-1,-7.628920734E-2,-1.952222169E1,1.952770450E1
1.635124342E1,-1.055203739E0,-4.259414475E-1,-1.840254772E1,1.843769627E1
1.636116342E1,-1.737163916E0,-9.047797313E-1,-1.707666467E1,1.718862534E1
1.637108442E1,-2.346881305E0,-1.518938519E0,-1.593925961E1,1.618255304E1
1.638100442E1,-2.637317623E0,-2.039796356E0,-1.536239319E1,1.572002983E1
1.639092542E1,-2.690407125E0,-2.345069692E0,-1.517876372E1,1.559270697E1
1.640084542E1,-2.449611329E0,-2.555497534E0,-1.467924662E1,1.510004783E1
1.641076642E1,-2.096235290E0,-2.811433964E0,-1.369592621E1,1.413777769E1
1.642068642E1,-1.686993929E0,-2.803968239E0,-1.260461825E1,1.302246473E1
