"Time (s)","Linear Acceleration x (m/s^2)","Linear Acceleration y (m/s^2)","Linear Acceleration z (m/s^2)","Absolute acceleration (m/s^2)"
4.305583308E-3,4.528706530E-1,-7.551211238E-1,-2.151216951E0,2.324442753E0
1.422458328E-2,5.526998734E-1,-8.680881608E-1,-1.334382559E0,1.685120476E0
2.414458327E-2,3.709374207E-1,-1.117714568E0,-5.036888042E-1,1.280852387E0
3.406458325E-2,2.375947376E-1,-1.502092398E0,-2.133289388E-1,1.535656885E0
4.398358334E-2,2.214811268E-1,-1.665949507E0,1.008942908E-1,1.683633365E0
5.390358332E-2,4.298001713E-1,-1.361510131E0,2.313433331E-1,1.446360177E0
6.382258330E-2,8.558249415E-1,-1.041948102E0,2.903604501E-1,1.379275668E0
7.374258328E-2,9.885288164E-1,-6.882886183E-1,3.971791399E-1,1.268338169E0
8.366158325E-2,1.073942896E0,-5.112811214E-1,3.255109870E-1,1.233174413E0
9.358158323E-2,8.394622394E-1,-2.099933946E-1,2.231069452E-1,8.936278790E-1
1.035005833E-1,2.085372917E-1,3.116840762E-1,-1.779366195E-2,3.754349209E-1
1.134205833E-1,-4.532717720E-1,6.328394723E-1,1.386023998E-2,7.785455691E-1
1.233395833E-1,-9.796486500E-1,1.036148833E0,6.444485343E-1,1.564809827E0
1.332595833E-1,-7.202095918E-1,1.097966766E0,1.323262324E0,1.864203866E0
1.431795832E-1,5.418440790E-1,2.472348958E-1,1.858885989E0,1.951967525E0
1.530985833E-1,1.236044086E0,-7.506333858E-1,2.003387060E0,2.470792419E0
1.630185833E-1,2.438735654E0,-1.622854943E0,2.119536152E0,3.615732741E0
1.729375833E-1,4.737685140E0,-1.415748904E0,1.811564473E0,5.266096399E0
1.828575833E-1,5.160747857E0,-9.074469388E-2,1.197381127E0,5.298610630E0
1.927765833E-1,4.029912430E0,4.339493555E-1,6.435428005E-1,4.103980211E0
2.026965832E-1,2.477071462E0,1.076829082E-1,-6.344228983E-4,2.479411027E0
2.126155833E-1,1.524229957E0,-5.138661754E-1,5.324381018E-1,1.694351126E0
2.225355833E-1,9.499190667E-1,-1.236306626E0,1.302542716E0,2.031604743E0
2.324545833E-1,1.891141387E-1,-2.060306781E0,1.940568668E0,2.836623864E0
2.423745833E-1,-8.973227772E-1,-3.564538676E0,1.131511073E0,3.845964306E0
2.522945832E-1,-1.019255935E0,-4.537704810E0,3.323674321E-1,4.662629699E0
2.622135833E-1,-3.274244153E-1,-4.739799786E0,-1.741335905E-1,4.754285568E0
2.721335833E-1,1.120732170E0,-4.894649259E0,-6.446923631E-1,5.062534959E0
2.820525833E-1,1.222958748E0,-4.594921569E0,-1.589036987E0,5.013379187E0
2.919725833E-1,8.189784198E-1,-5.150329288E0,-2.791174239E0,5.915003894E0
3.018915833E-1,4.349441130E-1,-4.866504271E0,-2.490580577E0,5.484070734E0
3.118114583E-1,4.282246390E-1,-5.616032533E0,-1.882849633E0,5.938713707E0
3.217304583E-1,-2.480953136E-1,-7.230644072E0,-1.715069627E0,7.435403742E0
3.316504583E-1,-1.928703206E0,-8.822180158E0,-2.385529500E0,9.340316365E0
3.415694583E-1,-3.694830428E0,-1.018617828E1,-3.574697628E0,1.141001591E1
3.514894582E-1,-5.576915245E0,-1.069784707E1,-3.960647775E0,1.269774178E1
3.614094583E-1,-6.829678860E0,-1.053062723E1,-4.489382250E0,1.333016040E1
3.713284583E-1,-7.541973807E0,-1.088574033E1,-6.361848398E0,1.469196469E1
3.812484583E-1,-7.703274513E0,-1.090729317E1,-7.887079983E0,1.550856257E1
3.911674583E-1,-7.082128887E0,-1.100900431E1,-8.416474609E0,1.556251170E1
4.010874582E-1,-6.251626629E0,-1.124246375E1,-7.874796152E0,1.508271332E1
4.110064583E-1,-6.449672992E0,-1.105685208E1,-6.593235000E0,1.439871548E1
4.209264583E-1,-7.022922905E0,-9.873618876E0,-4.990551197E0,1.310402217E1
4.308454583E-1,-6.647593056E0,-1.010714030E1,-3.841217226E0,1.269250677E1
4.407654583E-1,-6.473564715E0,-1.066848235E1,-1.944419060E0,1.262950202E1
4.506854583E-1,-6.230685410E0,-1.067971252E1,9.093326658E-1,1.239776536E1
4.606044582E-1,-5.767951382E0,-9.561182848E0,3.585679576E0,1.172785482E1
4.705244583E-1,-5.737099718E0,-8.790874751E0,4.647844133E0,1.148025466E1
4.804434583E-1,-4.299777512E0,-7.516285234E0,5.155171368E0,1.007761987E1
4.903634583E-1,-2.877082116E0,-8.159924514E0,4.219584119E0,9.626362745E0
5.002824583E-1,-1.935178705E0,-7.204060290E0,4.168655747E0,8.545237974E0
5.102024582E-1,-8.415605128E-1,-5.383027421E0,4.825706493E0,7.278231342E0
5.201214583E-1,1.014649791E-1,-4.397450864E0,5.885362887E0,7.347473413E0
5.300414583E-1,1.026842989E0,-4.113470603E0,8.281660620E0,9.303813710E0
5.399614583E-1,2.018794473E0,-2.949522394E0,1.063404225E1,1.121864823E1
5.498804583E-1,4.043970598E0,-2.385355253E0,1.088033984E1,1.185012291E1
5.598004583E-1,5.911404632E0,-1.666224034E0,1.097405901E1,1.257580926E1
5.697194582E-1,7.465954156E0,-3.747115061E-1,1.035679652E1,1.277278804E1
5.796394583E-1,9.009096347E0,7.132948208E-1,9.546932014E0,1.314596962E1
5.895584583E-1,1.042181522E1,2.164757348E0,8.379430159E0,1.354678031E1
5.994784583E-1,1.155272988E1,2.182438451E0,6.557308538E0,1.346205410E1
6.093974583E-1,1.290770984E1,7.381712151E-1,3.740386670E0,1.345898817E1
6.193174582E-1,1.453965837E1,3.155099094E-1,2.169652345E0,1.470403358E1
6.292364583E-1,1.629794185E1,3.684172708E-1,2.187842740E0,1.644826117E1
6.391564583E-1,1.829662073E1,1.733956718E-1,3.093879915E0,1.855716813E1
6.490764583E-1,2.021441625E1,2.178041053E-1,4.923833297E0,2.080659024E1
6.589954583E-1,2.207087214E1,1.444081002E-1,7.109649392E0,2.318817295E1
6.689154583E-1,2.343765879E1,-2.450416052E-1,8.235907912E0,2.484379348E1
6.788344582E-1,2.346488109E1,-1.010312326E0,8.270649728E0,2.490030166E1
6.887544583E-1,2.253784715E1,-2.179556066E0,7.724499906E0,2.392431645E1
6.986734583E-1,1.989457823E1,-3.030857456E0,7.341376303E0,2.142139458E1
7.085934583E-1,1.856650248E1,-4.314092665E0,7.920403265E0,2.064120146E1
7.185124583E-1,1.749782558E1,-4.839011248E0,8.326936195E0,1.997317692E1
7.284324582E-1,1.605236815E1,-5.462738419E0,7.526658195E0,1.855183597E1
7.383524583E-1,1.360579956E1,-5.300681668E0,5.702935606E0,1.567604805E1
7.482714583E-1,1.078330647E1,-4.535232022E0,2.572890077E0,1.197780411E1
7.581914583E-1,8.871027213E0,-3.140467021E0,-2.128489408E0,9.648218701E0
7.681104583E-1,7.113300979E0,4.302235097E-1,-1.709951208E1,1.852504944E1
7.780304583E-1,5.764146599E0,-2.036563577E0,-7.431635678E0,9.623002965E0
7.879494582E-1,5.140495441E0,-3.730768000E0,6.995362054E0,9.448725497E0
7.978694583E-1,2.817928174E0,-3.386907281E0,7.701398726E0,8.872620947E0
8.077884583E-1,9.378138685E-1,-1.707529643E0,2.244982901E0,2.972389705E0
8.177084583E-1,-3.124828058E-1,1.162292570E0,-2.529118406E0,2.800894399E0
8.276284583E-1,-1.768565218E0,3.840959364E0,-3.163033766E0,5.280679347E0
8.375474582E-1,-2.132892947E0,4.762881669E0,-3.091282582E0,6.065500979E0
8.474674583E-1,-2.390349652E0,5.522807450E0,-4.406901426E0,7.458951252E0
8.573864583E-1,-2.091694635E0,6.258326953E0,-4.457102989E0,7.962889535E0
8.673064583E-1,-2.215129357E0,6.923820786E0,-4.389844514E0,8.492162693E0
8.772254583E-1,-1.523868891E0,4.781762913E0,-1.901969736E0,5.367021691E0
8.871454583E-1,-2.306676874E0,7.448706039E0,-2.912394913E0,8.323822679E0
8.970654582E-1,-3.602856649E0,8.522379379E0,-4.120832540E0,1.012880976E1
9.069844583E-1,-2.022453076E0,7.091585004E0,-2.656777741E0,7.838326498E0
9.169044583E-1,-7.111255038E-1,5.396837375E0,-6.338966489E-1,5.480271717E0
9.268234583E-1,2.349580818E-1,4.355250047E0,6.933590314E-1,4.416350871E0
9.367434583E-1,-3.003284910E-1,3.889994699E0,4.326600444E-1,3.925487317E0
9.466624582E-1,-2.170858333E0,4.225953491E0,-1.467742053E0,4.972481829E0
9.565824583E-1,-2.789418612E0,4.775718647E0,-2.254687525E0,5.972600826E0
9.665014583E-1,-2.464024862E0,3.815538009E0,-1.338620913E0,4.735150976E0
9.764214583E-1,-2.666239413E0,3.737106382E0,-1.115688508E0,4.724357900E0
9.863414583E-1,-3.256738320E0,4.877077791E0,-1.658483198E0,6.094489214E0
9.962604583E-1,-4.020570333E0,5.660207663E0,-2.305519710E0,7.315624219E0
1.006180458E0,-4.361210406E0,6.402618694E0,-2.459119048E0,8.127788681E0
1.016099458E0,-4.475236666E0,7.354489269E0,-2.380377519E0,8.932102370E0
1.026019458E0,-4.131786129E0,7.779235691E0,-2.103153131E0,9.056015551E0
1.035938458E0,-3.573665887E0,7.481670887E0,-1.162406006E0,8.372435420E0
1.045858458E0,-3.376071513E0,7.543208739E0,-3.497728390E-1,8.271650257E0
1.055777458E0,-3.477702261E0,6.503907672E0,1.532157612E-1,7.376903353E0
1.065697458E0,-2.671438757E0,6.160965550E0,1.387679637E0,6.857093868E0
1.075617458E0,-1.894311345E0,5.749891087E0,1.166208451E0,6.165201143E0
1.085536458E0,-1.373706546E0,4.369040120E0,8.385176218E-1,4.656038343E0
1.095456458E0,-4.742331630E-1,3.099873896E0,8.572740278E-1,3.251005079E0
1.105375458E0,3.870175561E-1,2.072016415E0,5.413460425E-1,2.176255994E0
1.115295458E0,8.729834497E-1,8.475387061E-1,-7.939466357E-2,1.219313526E0
1.125214458E0,1.270499974E0,3.132949841E-1,-4.989230311E-1,1.400445687E0
1.135134458E0,2.492501387E-1,3.284328407E-1,3.038818440E-1,5.121893572E-1
1.145053458E0,-4.398032954E-1,-1.590519256E0,1.736307591E0,2.395400279E0
1.154973458E0,-3.723886997E-2,-2.013479354E0,1.744182914E0,2.664143367E0
1.164893458E0,-1.881990677E-1,-4.074512944E0,1.586127997E0,4.376399964E0
1.174812458E0,8.038354468E-1,2.493457407E-1,2.479574363E0,2.618513652E0
1.184732458E0,3.015915188E0,1.778389125E0,3.758081514E0,5.136301098E0
1.194651458E0,6.268183604E0,-2.496710213E0,5.424787066E0,8.657482446E0
1.204571458E0,6.867781656E0,-3.866027547E0,5.478115427E0,9.598038471E0
1.214490458E0,7.249702486E0,-2.672942369E0,4.473176107E0,8.928163951E0
1.224410458E0,6.490298277E0,-1.890474987E0,2.379843375E0,7.166695326E0
1.234329458E0,4.265012014E0,-8.566627014E-1,-2.751304999E-1,4.358886929E0
1.244249458E0,2.314085003E0,-2.778263587E-1,-1.365706678E0,2.701357366E0
1.254169458E0,1.584120063E0,-2.552952826E-1,-1.300142726E0,2.065183567E0
1.264088458E0,1.547313010E0,-4.585544389E-1,5.668103743E-1,1.710474708E0
1.274008458E0,1.063168817E0,-5.826013649E-1,2.347376126E0,2.641955139E0
1.283927458E0,-1.058346033E-1,-4.374296182E-1,1.746659794E0,1.803708976E0
1.293847458E0,-5.887824565E-1,-2.564304610E0,3.313090861E0,4.230708448E0
1.303766458E0,-1.638224934E0,-3.541907612E0,3.375300850E0,5.159607184E0
1.313689708E0,-2.923158468E0,-2.707230442E0,8.219664931E-1,4.068117625E0
1.323609708E0,-3.307231658E0,-2.655198993E0,-1.484586127E0,4.493535235E0
1.333528708E0,-2.988332410E0,-2.412230226E0,-2.830664579E0,4.770916811E0
1.343448708E0,-2.793902842E0,-1.849004779E0,-4.205246161E0,5.376691087E0
1.353367708E0,-2.689725924E0,-1.836973549E0,-4.753239026E0,5.762150519E0
1.363287708E0,-2.688877201E0,-1.163836235E0,-3.646352917E0,4.677655928E0
1.373206708E0,-2.064805921E0,-1.257419752E0,-2.119630292E0,3.215176589E0
1.383126708E0,-1.842007416E-1,-2.824868819E0,3.665078625E-1,2.854495012E0
1.393045708E0,6.744780797E-1,-4.900240951E0,3.433796688E0,6.021481691E0
1.402965708E0,3.475371560E-1,-3.664966359E0,7.111974245E-1,3.749474931E0
1.412885708E0,9.475866124E-1,-1.648649350E0,-1.435113713E0,2.382334241E0
1.422804708E0,1.792109617E0,-5.420643729E-1,-2.399675669E0,3.043671135E0
1.432724708E0,2.635470780E0,1.475575860E0,-3.339555359E0,4.502850247E0
1.442643708E0,4.552323434E0,1.905600564E0,-3.253303666E0,5.910917602E0
1.452563708E0,4.501778932E0,3.779654816E0,-2.674308863E0,6.457842672E0
1.462482708E0,3.500783267E0,4.740197981E0,-2.249902164E0,6.307695311E0
1.472402708E0,1.998950485E0,4.425062878E0,-7.851231873E-1,4.918678983E0
1.482322708E0,5.817312992E-1,3.505836139E0,1.176484201E0,3.743449400E0
1.492241708E0,8.878289455E-1,2.654140062E0,1.787097091E0,3.320604722E0
1.502161708E0,1.203413992E0,3.304289047E0,1.968269121E0,4.029964600E0
1.512080708E0,-4.289926708E-2,4.658206569E0,1.279776582E0,4.830999574E0
1.522000708E0,-1.683089158E0,5.414340430E0,3.494668834E-1,5.680668844E0
1.531919708E0,-2.081238644E0,4.645077231E0,2.444881663E-2,5.090078046E0
1.541839708E0,-1.340180658E0,4.212944605E0,-2.695203888E-1,4.429179121E0
1.551758708E0,-7.913767844E-2,4.282492558E0,-4.922326469E-1,4.311414879E0
1.561678708E0,5.307122961E-1,4.271003364E0,-5.629028262E-1,4.340505139E0
1.571598708E0,4.265777707E-1,5.273715479E0,-7.919961508E-1,5.349887985E0
1.581517708E0,-1.274604427E0,8.044330323E0,-1.897391220E0,8.362772281E0
1.591437708E0,-1.704473011E0,7.104012092E0,-9.292408271E-1,7.364489430E0
1.601356708E0,-2.449669363E0,6.040012386E0,3.432898848E-1,6.526904132E0
1.611276708E0,-3.209191978E0,5.520542824E0,1.463621228E0,6.551144428E0
1.621195708E0,-3.292666829E0,5.540542640E0,1.678674803E0,6.660121372E0
1.631115708E0,-3.065086764E0,5.783064680E0,1.322646174E0,6.677423670E0
1.641035708E0,-2.761869164E0,6.418508502E0,7.455112249E-1,7.027158719E0
1.650954708E0,-2.310594654E0,6.766669849E0,1.897519420E-1,7.152808840E0
1.660874708E0,-2.039390121E0,6.514281217E0,6.619730781E-1,6.858074088E0
1.670793708E0,-1.617962286E0,5.193012208E0,2.375941528E0,5.935509742E0
1.680713708E0,-5.405300635E-1,1.718482647E0,4.729606335E0,5.061080066E0
1.690632708E0,1.993683021E0,-4.724524519E0,9.317477331E0,1.063537906E1
1.700552708E0,4.705339805E0,-1.053770236E1,1.299385336E1,1.737882674E1
1.710471708E0,4.206320879E0,-1.744356342E1,1.789580112E1,2.534227176E1
1.720391708E0,2.769020893E0,-1.286373878E1,1.620299710E1,2.087295780E1
1.730311708E0,2.311904284E0,-3.130871156E0,6.802241385E0,7.836947331E0
1.740230708E0,1.401128526E0,-1.533814128E0,-1.873173076E-1,2.085865456E0
1.750150708E0,7.959596859E-1,-1.122294107E0,-5.427393755E0,5.599080179E0
1.760069708E0,-5.013097183E-1,-1.566340435E0,-4.274569288E0,4.580030174E0
1.769989708E0,-1.442577391E0,-2.278702624E0,-2.799488687E0,3.887242222E0
1.779908708E0,-1.578816492E0,-1.750280390E0,-1.864502825E0,3.005414072E0
1.789828708E0,-9.934550956E-1,-1.718525916E0,-3.697978569E0,4.197062049E0
1.799748708E0,2.236204769E-1,-3.541928077E0,-1.253953523E0,3.763995226E0
1.809667708E0,-1.012559849E0,-1.542355039E1,1.708573663E0,1.555089734E1
1.819587708E0,-4.031076903E0,-3.483760093E1,1.576620717E0,3.510546613E1
1.829506708E0,4.705766652E0,-3.494672868E1,-5.984017110E-1,3.526721098E1
1.839426708E0,-1.987581452E0,-1.206318245E1,-6.571757008E0,1.388015998E1
1.849345708E0,-1.106358807E1,-4.673591763E-1,-8.606498008E0,1.402473578E1
1.859265708E0,-1.208373658E1,1.393618362E0,-6.533870559E0,1.380761842E1
1.869185708E0,-9.391330004E0,-4.125497156E-1,-4.339615177E0,1.035372090E1
1.879104708E0,-6.676802822E0,-2.332480052E0,-2.045411584E0,7.362327598E0
1.889024708E0,-5.663886731E0,-2.483656889E0,-9.505686924E-1,6.257135549E0
1.898943708E0,-3.577151412E0,-3.059658501E0,-2.953992882E-1,4.716437544E0
1.908863708E0,-1.166206843E0,-3.852332198E0,8.242586017E-2,4.025828584E0
1.918782708E0,-2.762691721E-1,-3.562143071E0,9.871851262E-1,3.706713152E0
1.928702708E0,-7.983802870E-2,-3.198224648E0,2.317605904E0,3.950482520E0
1.938622708E0,-6.354753971E-3,-2.058140972E0,3.454659553E0,4.021275578E0
1.948541708E0,-6.849839182E-1,-7.242589349E-1,3.645698614E0,3.779533351E0
1.958461708E0,-7.851683570E-1,-4.246002424E-1,2.969832405E0,3.101077108E0
1.968380708E0,-1.482709171E-1,-2.136841571E-1,2.136813505E0,2.152583828E0
1.978300708E0,1.111385395E0,2.875953019E-1,1.242556715E0,1.691696115E0
1.988219708E0,1.287713446E0,1.783972632E0,3.160455143E-1,2.222757080E0
1.998139708E0,2.239570426E0,3.464911476E0,-6.149484542E-1,4.171264656E0
2.008059708E0,3.202453939E0,4.471970412E0,-1.250947177E0,5.640842086E0
2.017978708E0,3.620735680E0,5.379543650E0,-2.107256122E0,6.818338882E0
2.027898708E0,3.236802823E0,6.556668268E0,-2.703296727E0,7.795806853E0
2.037817708E0,1.758900648E0,7.447878658E0,-3.782072639E0,8.536316621E0
2.047737708E0,1.216602240E0,6.744197245E0,-3.774586157E0,7.823798192E0
2.057656708E0,1.643730526E0,5.158773252E0,-1.803710785E0,5.706852382E0
2.067576708E0,2.032765226E0,4.154444382E0,5.726295233E-2,4.625453668E0
2.077496708E0,2.166270900E0,3.671403558E0,1.021036119E0,4.383428847E0
2.087415708E0,2.847992510E0,2.811540091E0,1.367273439E0,4.229096320E0
2.097335708E0,3.424529728E0,1.644836381E0,2.047338826E0,4.315609673E0
2.107254708E0,3.146150807E0,1.332432513E0,2.104944425E0,4.013032810E0
2.117174708E0,2.727579629E0,1.421289725E0,1.230367609E0,3.312636347E0
2.127093708E0,2.135815970E0,1.486182125E0,7.118691234E-1,2.697629480E0
2.137013708E0,2.091803831E0,2.231444843E0,1.159155393E0,3.270876118E0
2.146933708E0,1.089426908E0,1.683526822E0,1.157615529E0,2.315423776E0
2.156852708E0,-1.097801290E0,6.312152327E0,1.168719245E0,6.512629219E0
2.166772708E0,-4.473547698E0,1.783479945E1,1.888652995E0,1.848403935E1
2.176691708E0,-2.136343681E0,2.667809683E-1,9.830454986E-2,2.155179852E0
2.186611708E0,4.566827452E-1,9.768744385E-1,1.122677100E0,1.556678088E0
2.196530708E0,2.377629912E-1,-7.464766002E-1,2.490050819E0,2.610385342E0
2.206450708E0,-8.043555567E-1,-4.294277036E-1,3.936780610E0,4.040994628E0
2.216370708E0,-1.402796736E0,-4.894704223E-2,5.732881536E0,5.902216974E0
2.226289708E0,-7.739358558E-1,-9.718820858E-1,7.500541606E0,7.602740024E0
2.236209708E0,-2.821876507E-1,-1.377153187E0,9.042269940E0,9.150892112E0
2.246128708E0,-5.585437270E-1,-2.224405965E0,9.402624485E0,9.678290149E0
2.256048708E0,-8.516554382E-1,-4.297383662E0,7.680024229E0,8.841696414E0
2.265967708E0,-5.008821407E-1,-5.099262046E0,6.415777853E0,8.210698008E0
2.275887708E0,1.582519680E-2,-5.256096649E0,5.573409255E0,7.660919862E0
2.285807708E0,7.306446791E-1,-4.756975982E0,4.922862074E0,6.884564848E0
2.295726708E0,1.979135295E0,-2.843837187E0,4.361910610E0,5.570516191E0
2.305646708E0,3.711796124E0,-1.416137744E0,4.586506841E0,6.067859720E0
2.315562208E0,4.803555486E0,-1.356863349E0,4.998895758E0,7.064289225E0
2.325482208E0,5.235541347E0,-1.162987804E0,4.791594422E0,7.191857266E0
2.335401208E0,5.218134186E0,-6.002435839E-1,4.089442055E0,6.656782486E0
2.345321208E0,4.197486906E0,-2.452982980E-1,2.984424716E0,5.156147638E0
2.355241208E0,2.620665337E0,-7.523068589E-1,2.294041625E0,3.563211950E0
2.365160208E0,9.640845314E-1,-1.598104849E0,2.479637805E0,3.103546638E0
2.375080208E0,-1.207342736E0,-1.291813660E0,2.718328165E0,3.242802341E0
2.384999208E0,-4.105557566E0,-2.681199807E-1,2.260605346E0,4.694446483E0
2.394919208E0,-6.049764372E0,-3.534057140E-1,1.315941610E0,6.201310094E0
2.404839208E0,-6.369517606E0,-3.759692422E0,3.105479622E-1,7.402869827E0
2.414758208E0,-5.839437101E0,-9.338417965E0,-8.874209560E-1,1.104955165E1
2.424678208E0,-5.543664469E0,-1.477803766E1,-1.686527906E0,1.587346809E1
2.434597208E0,-5.173416435E0,-1.715048694E1,-8.182739764E-1,1.793245695E1
2.444517208E0,-4.477677879E0,-1.585560934E1,-2.081146842E-1,1.647705248E1
2.454436208E0,-4.863843203E0,-1.358698556E1,-8.801196840E-1,1.445813812E1
2.464356208E0,-3.720879773E0,-1.074604333E1,-2.352751179E0,1.161283048E1
2.474276208E0,-1.508811726E0,-6.958882445E0,-4.408746223E0,8.374938864E0
2.484195208E0,4.539651056E-1,-3.196686831E0,-7.040278026E0,7.745347358E0
2.494115208E0,1.833373564E0,1.691990082E0,-9.390472217E0,9.716226507E0
2.504034208E0,-7.452092162E-1,1.747343334E1,-9.989665056E0,2.014124170E1
2.513954208E0,-2.812665680E-1,1.239480144E1,-8.960432895E0,1.529704453E1
2.523873208E0,4.640527220E0,3.424568027E-1,-8.559118019E0,9.742190247E0
2.533793208E0,4.831687903E0,2.231855317E0,-7.403932739E0,9.118366419E0
2.543713208E0,3.100140822E0,4.479034433E0,-6.310317471E0,8.336229912E0
2.553632208E0,3.319473097E0,4.719670161E0,-3.292192327E0,6.643246073E0
2.563552208E0,2.739877785E0,5.191549820E0,4.813670585E-1,5.889892533E0
2.573471208E0,1.204570571E0,5.580222430E0,2.450686194E0,6.212546616E0
2.583391208E0,-9.716040507E-1,6.187524773E0,3.694999997E0,7.272035631E0
2.593311208E0,-2.368765972E0,6.450314432E0,3.763403649E0,7.834590961E0
2.603230208E0,-3.158194318E0,6.434880121E0,3.088844586E0,7.805308091E0
2.613150208E0,-4.083872875E0,6.564291868E0,2.184960355E0,8.033803404E0
2.623069208E0,-5.257083659E0,6.441872807E0,7.595129675E-1,8.349342118E0
2.632989208E0,-6.318437499E0,6.070734242E0,-1.554498653E0,8.899041113E0
2.642908208E0,-6.900333105E0,5.640004948E0,-4.056613740E0,9.791852113E0
2.652828208E0,-7.197739450E0,5.296129026E0,-4.797904445E0,1.014279660E1
2.662748208E0,-6.758534033E0,4.552629828E0,-4.285972821E0,9.207267979E0
2.672667208E0,-5.066655632E0,3.188916466E0,-2.619312292E0,6.534599024E0
2.682587208E0,-4.034911507E0,3.159604958E0,-1.447975248E0,5.325433943E0
2.692506208E0,-2.453377667E0,2.576077979E0,-1.218815850E0,3.760419100E0
2.702426208E0,-8.865036741E-1,1.172819313E0,-1.674485857E0,2.228294593E0
2.712346208E0,9.745554328E-1,1.555318433E-1,-2.012366922E0,2.241331986E0
2.722265208E0,4.321356369E0,-7.469806302E-1,-1.931631784E0,4.792003994E0
2.732185208E0,7.549133137E0,-1.284495285E0,-7.261130869E-1,7.691981505E0
2.742104208E0,9.704620310E0,-2.301809651E0,1.222399024E0,1.004849453E1
2.752024208E0,9.259164804E0,-3.979993873E0,3.218460985E0,1.057974363E1
2.761943208E0,6.070353588E0,-4.805986758E0,4.191731492E0,8.804391762E0
2.771863208E0,3.254315526E0,-6.011652805E0,3.930936903E0,7.885607391E0
2.781783208E0,2.894848296E0,-7.209375994E0,4.431617022E0,8.943963233E0
2.791702208E0,1.837006001E0,-6.745263777E0,5.639500333E0,8.982045339E0
2.801622208E0,9.241606200E-1,-5.422093254E0,5.845291334E0,8.026244382E0
2.811541208E0,2.205041741E0,-3.900558863E0,5.345972446E0,6.975384571E0
2.821461208E0,2.564209301E0,-2.972732624E0,3.357936374E0,5.166047356E0
2.831381208E0,6.153025031E-2,-3.945763103E0,1.370546418E-1,3.948622090E0
2.841300208E0,-1.498671777E0,-8.323897982E0,-1.531368822E0,8.595253643E0
2.851220208E0,1.132871720E-1,-1.207724501E1,4.284289992E-1,1.208537266E1
2.861139208E0,6.815044595E-1,-9.394515567E0,1.831514880E0,9.595614510E0
2.871059208E0,8.545932256E-1,-6.522279623E0,-3.344118818E0,7.379267696E0
2.880978208E0,3.473615057E0,-5.824739540E0,-4.835891758E0,8.329432236E0
2.890898208E0,3.472724818E0,-5.720446263E0,-1.773568096E0,6.923067738E0
2.900818208E0,-8.234926164E-1,-5.498292414E0,-1.787341797E0,5.839858753E0
2.910737208E0,-5.128792824E0,-4.688994498E0,-7.653359172E-1,6.991203351E0
2.920657208E0,-6.478462343E0,-2.486702119E0,4.515219927E-2,6.939466873E0
2.930576208E0,-6.862591082E0,1.824171070E0,-9.397136289E-1,7.162807980E0
2.940496208E0,-8.151912074E0,6.049960839E0,-2.413149116E0,1.043450934E1
2.950416208E0,-9.291171877E0,7.681674314E0,-3.596684621E0,1.258054591E1
2.960335208E0,-8.989235694E0,5.848282769E0,-2.833008143E0,1.109210101E1
2.970255208E0,-6.733355337E0,-5.382192439E-1,-9.271956173E-1,6.818170265E0
2.980174208E0,-4.972340629E0,-6.079136106E0,-7.724119252E-1,7.891557977E0
2.990094208E0,-3.519473600E0,-1.119672800E1,-2.839682740E-1,1.174027471E1
3.000014208E0,-1.108593204E0,-1.348352961E1,3.782318223E-1,1.353431228E1
3.009933208E0,-9.700947382E-2,-1.139876100E1,2.638480049E-1,1.140222693E1
3.019853208E0,-8.166059120E-1,-4.815071577E0,-6.430592358E-1,4.925980582E0
3.029772208E0,-8.861682632E-1,-2.601128036E-1,-1.250033257E0,1.554199474E0
3.039692208E0,-3.666989934E-1,1.790677049E0,-3.670098460E-1,1.864319896E0
3.049611208E0,-3.366972953E-1,3.234249929E0,1.291943468E0,3.498979222E0
3.059531208E0,-8.659852827E-1,4.356150518E0,2.633257316E0,5.163334382E0
3.069451208E0,-1.638843570E0,5.285181284E0,3.290372966E0,6.437818241E0
3.079370208E0,-2.549534544E0,5.795043871E0,3.821912643E0,7.395246859E0
3.089290208E0,-4.308998863E0,6.132149302E0,1.986589179E0,7.753532281E0
3.099209208E0,-4.859083277E0,7.358947186E0,-8.742976114E-1,8.861669724E0
3.109129208E0,-3.522764120E0,6.828678986E0,-7.052294054E0,1.042955297E1
3.119049208E0,-4.168406948E-1,3.943230674E0,-1.003564171E1,1.079059446E1
3.128968208E0,2.349678467E0,2.816139511E0,-4.685671818E0,5.950390830E0
3.138888208E0,1.292873175E0,3.641299753E0,-4.736621824E-1,3.892934729E0
3.148807208E0,2.582549970E-1,4.264859110E0,1.169955347E0,4.429956476E0
3.158727208E0,8.732405810E-1,4.724012888E0,1.201620358E0,4.952043857E0
3.168647208E0,1.335758409E0,3.984780403E0,1.053230012E0,4.332668790E0
3.178566208E0,2.017605442E0,2.917741315E0,8.231178099E-1,3.641629996E0
3.188486208E0,2.864032885E0,1.825279117E0,6.828833060E-1,3.464196564E0
3.198405208E0,3.148063432E0,1.567690557E0,6.387818514E-1,3.574352991E0
3.208325208E0,3.055479204E0,1.582020328E0,1.129356374E0,3.621351585E0
3.218245208E0,2.536777966E0,1.394198406E0,1.660543756E0,3.337130086E0
3.228164208E0,1.617152739E0,1.244193351E0,2.430319172E0,3.173271396E0
3.238084208E0,8.116125360E-1,1.182789400E0,3.339996824E0,3.635008178E0
3.248003208E0,4.985338989E-1,1.482688998E0,3.882144227E0,4.185444602E0
3.257923208E0,1.308905071E0,2.193136225E0,3.645382279E0,4.451055037E0
3.267843208E0,3.524387015E0,3.755294731E0,2.868452210E0,5.895045414E0
3.277762208E0,5.494827354E0,4.213053364E0,1.345543724E0,7.053611430E0
3.287682208E0,5.419773663E0,2.266398913E0,2.010915935E-1,5.878005480E0
3.297601208E0,4.209346229E0,-1.113530885E0,1.038004739E0,4.476159129E0
3.307521208E0,1.800253034E0,-2.635047734E0,3.974216824E0,5.096938974E0
3.317440750E0,-7.670231313E-2,-9.293582100E-1,7.724199944E0,7.780286286E0
3.327359750E0,-1.094923583E0,7.337279159E-1,8.802546962E0,8.900676791E0
3.337279750E0,-2.872494391E0,8.834967434E-2,6.980949837E0,7.549350324E0
3.347198750E0,-5.012317457E0,-1.697411621E-1,5.123725626E0,7.169707292E0
3.357118750E0,-4.230896142E0,-2.000571626E0,4.214245026E0,6.297827414E0
3.367038750E0,-3.042232337E0,-2.269254693E0,3.880919820E0,5.428280861E0
3.376957750E0,-9.646882564E-1,-2.149071608E0,4.995084543E0,5.522680672E0
3.386877750E0,1.944342754E0,-3.050409960E0,5.125910146E0,6.273788688E0
3.396796750E0,4.222885749E0,-2.979214262E0,4.838987274E0,7.079850246E0
3.406716750E0,5.378909227E0,-1.810989107E0,5.283766258E0,7.754387912E0
3.416636750E0,4.921059378E0,-4.625434095E-1,5.799087220E0,7.619723381E0
3.426555750E0,4.014533376E0,4.772497416E-1,4.783600109E0,6.263152205E0
3.436475750E0,3.265499496E0,7.175153410E-1,3.024075855E0,4.508142633E0
3.446394750E0,2.030124038E0,3.692551768E-1,2.124543561E0,2.961661416E0
3.456314750E0,-4.286813065E-1,-1.480222642E-2,2.507655616E0,2.544076150E0
3.466234750E0,-2.836289016E0,-8.868126994E-1,2.616807637E0,3.959628058E0
3.476153750E0,-4.422078167E0,-2.658299187E0,1.830139908E0,5.474554042E0
3.486073750E0,-6.672159548E0,-3.326611378E0,1.719808649E0,7.651261208E0
3.495992750E0,-8.749787536E0,-4.676669737E0,2.490490822E0,1.022900612E1
3.505912750E0,-9.523314525E0,-7.123286269E0,2.094180286E0,1.207560839E1
3.515832750E0,-8.014342877E0,-1.009769354E1,8.418905881E-1,1.291905129E1
3.525751750E0,-5.789529946E0,-1.144992180E1,-4.067022076E-1,1.283685214E1
3.535671750E0,-4.690004605E0,-1.178721492E1,9.589638323E-2,1.268636177E1
3.545590750E0,-6.080592062E0,-1.318712606E1,1.394672030E-1,1.452216735E1
3.555510750E0,-5.912188159E0,-1.291194790E1,-1.862354265E0,1.432273476E1
3.565430750E0,-8.832638781E-1,-9.625687577E0,-6.962511812E0,1.191262302E1
3.575349750E0,5.941649355E0,-4.904286055E0,-9.794020144E0,1.246106133E1
3.585269750E0,8.876812449E0,-2.393488145E0,-9.332308794E0,1.310032718E1
3.595188750E0,5.900227094E0,-2.217246634E-1,-8.434579927E0,1.029582343E1
3.605108750E0,5.073256554E0,1.400330381E0,-8.131235150E0,9.685857851E0
3.615028750E0,3.645971386E0,3.527227592E0,-7.883185152E0,9.374382646E0
3.624947750E0,1.805415102E0,5.343844060E0,-7.300707749E0,9.225861838E0
3.634867750E0,4.006971171E-1,5.982398601E0,-5.270354499E0,7.982874654E0
3.644786750E0,-4.464742376E-1,5.947082587E0,-3.651943440E0,6.993126728E0
3.654706750E0,-8.882103302E-1,6.703200077E0,-1.943878777E0,7.035657294E0
3.664626750E0,-7.334748776E-1,7.315393031E0,8.258809116E-1,7.398313312E0
3.674545750E0,-9.527057035E-1,7.868757148E0,3.080305020E0,8.503720728E0
3.684465750E0,-1.821544647E0,8.262765343E0,3.556081848E0,9.178073551E0
3.694384750E0,-3.156821099E0,9.159224778E0,3.721292879E0,1.037809899E1
3.704304750E0,-5.130965649E0,1.029129835E1,3.169333848E0,1.192821476E1
3.714224750E0,-6.410998923E0,1.060209424E1,1.962129984E0,1.254413263E1
3.724143750E0,-7.219827892E0,1.045308964E1,-2.743835181E-1,1.270701712E1
3.734063750E0,-7.300990754E0,9.063208235E0,-3.088599295E0,1.204099892E1
3.743982750E0,-5.304558372E0,6.026365569E0,-5.179421525E0,9.554152439E0
3.753902750E0,-3.002534128E0,3.611189516E0,-5.553451538E0,7.273013467E0
3.763822750E0,-1.879271137E0,2.026250843E0,-4.442496059E0,5.231933077E0
3.773741750E0,-1.339804390E0,6.599278682E-1,-2.157694497E0,2.624161987E0
3.783661750E0,-3.608226147E-1,-2.525166857E-1,-9.271432847E-1,1.026426961E0
3.793581750E0,9.561888899E-1,-6.887271595E-1,-7.200208730E-1,1.380967904E0
3.803500750E0,2.663562266E0,-1.172557942E0,-1.389499876E0,3.224928833E0
3.813420750E0,4.654405879E0,-1.602352266E0,-2.476141462E0,5.510199943E0
3.823339750E0,7.868488176E0,-1.835594190E0,-1.110379236E0,8.155700721E0
3.833259750E0,9.845880854E0,-3.487281754E0,1.612007189E0,1.056887274E1
3.843179750E0,1.002398821E1,-5.112901846E0,3.470726532E0,1.177573979E1
3.853098750E0,7.445901715E0,-5.061969089E0,5.137478862E0,1.036622749E1
3.863018750E0,2.248182498E0,-4.819748181E0,6.039237045E0,8.047153606E0
3.872937750E0,-1.435794913E0,-4.857938685E0,6.618110225E0,8.334294106E0
3.882857750E0,-7.512565528E-1,-4.439603149E0,6.612112151E0,7.999655595E0
3.892777750E0,7.887512384E-1,-3.475791391E0,5.883944353E0,6.879248175E0
3.902696750E0,1.278774076E0,-1.500603113E0,4.202479843E0,4.641972606E0
3.912616750E0,1.024135948E0,7.960376000E-1,1.846696883E0,2.256727648E0
3.922535750E0,-9.034521210E-1,1.205795855E0,-1.658297841E0,2.240562677E0
3.932455750E0,-2.404180218E0,-1.941350441E0,-4.408674302E0,5.383802853E0
3.942375750E0,-2.039339543E0,-6.426664783E0,-1.044748333E0,6.822933760E0
3.952294750E0,-9.379533977E-1,-9.021741536E0,1.989889348E0,9.286077564E0
3.962214750E0,7.404665396E-2,-1.187392913E1,-9.100647372E-1,1.190898374E1
3.972133750E0,9.593773766E-1,-1.472988467E1,-1.882742921E0,1.488067970E1
3.982053750E0,1.811234251E0,-1.398459389E1,1.231199083E0,1.415504457E1
3.991973750E0,-1.710464506E0,-7.618814991E0,-2.009994999E-1,7.811045480E0
4.001892750E0,-6.557405602E0,-2.597368276E-1,-3.240619885E0,7.319060642E0
4.011812750E0,-7.992825708E0,3.954340383E0,-4.184450539E0,9.850466841E0
4.021732750E0,-9.058052745E0,4.992668474E0,-4.480000100E0,1.127144440E1
4.031651750E0,-9.828149757E0,4.706848971E0,-4.256073376E0,1.169876555E1
4.041571750E0,-8.230670561E0,2.743562116E0,-2.573568354E0,9.049548333E0
4.051490750E0,-5.691082715E0,-1.871203734E0,-7.654110539E-1,6.039509911E0
4.061410750E0,-5.114443172E0,-6.412863600E0,-6.625439125E-1,8.229296018E0
4.071330750E0,-4.120508897E0,-1.104032434E1,-1.020994020E-1,1.178464167E1
4.081249750E0,-2.031330319E0,-1.337572566E1,9.546088260E-1,1.356272900E1
4.091169750E0,-7.889199306E-1,-1.178396972E1,1.109560918E0,1.186235484E1
4.101088750E0,1.973423406E-1,-7.130254396E0,-1.548731545E-1,7.134665895E0
4.111008750E0,4.335359573E-1,-1.470261911E0,-1.920555696E0,2.457266305E0
4.120928750E0,9.572662394E-1,1.983223522E0,-2.056706358E0,3.013233352E0
4.130847750E0,4.528566197E-1,3.474995000E0,-4.618136770E-1,3.534676964E0
4.140767750E0,2.184974023E-1,4.426039948E0,1.035180242E0,4.550732784E0
4.150687750E0,-7.697849905E-1,5.647720349E0,1.653996629E0,5.935066884E0
4.160606750E0,-2.456869040E0,6.205115536E0,2.045041455E0,6.980104501E0
4.170526750E0,-2.282409905E0,7.028680074E0,2.555446371E0,7.819337869E0
4.180445750E0,-2.373708915E0,8.116051100E0,9.060459459E-1,8.504451701E0
4.190365750E0,-1.765388134E0,7.583922901E0,-6.704885829E0,1.027560100E1
4.200285750E0,6.682167350E-1,5.211388838E0,-7.788143924E0,9.394693875E0
4.210204750E0,2.176906547E0,4.379825310E0,-2.852288460E0,5.661920285E0
4.220124750E0,2.060117624E0,4.636019309E0,7.698920676E-1,5.131227285E0
4.230043750E0,1.324445655E0,4.871915284E0,1.795365054E0,5.358455982E0
4.239963750E0,1.290142233E0,4.114868672E0,3.954375467E-1,4.330471340E0
4.249883750E0,1.457573891E0,3.099192696E0,-4.336622572E-1,3.452184811E0
4.259802750E0,1.750745536E0,2.581190200E0,1.746694878E-2,3.118967437E0
4.269722750E0,2.354425821E0,2.238204224E0,7.951062848E-1,3.344409230E0
4.279642750E0,2.489033988E0,1.824202645E0,1.270381860E0,3.337195762E0
4.289561750E0,2.133387329E0,2.106269989E0,1.270276026E0,3.255966207E0
4.299481750E0,2.190610228E0,2.231420869E0,1.344579518E0,3.403807625E0
4.309400750E0,2.392308470E0,2.306405563E0,1.906465952E0,3.831091080E0
4.319321583E0,2.550042667E0,2.885840076E0,2.192472566E0,4.431447449E0
4.329241583E0,1.699582399E0,2.120337220E0,2.780563881E0,3.887923065E0
4.339160583E0,1.318082861E0,8.067274797E-1,3.468882905E0,3.797538711E0
4.349080583E0,2.527172452E0,-1.342754602E-1,3.407174900E0,4.244227998E0
4.359000583E0,4.877330976E0,-1.124544116E0,2.811180487E0,5.740704891E0
4.368919583E0,7.365553370E0,-1.540721444E0,2.260036558E0,7.857032790E0
4.378839583E0,6.162246090E0,-1.429787484E0,3.033114481E0,7.015508006E0
4.388758583E0,2.737357635E0,-6.525247085E-1,5.861993905E0,6.502452450E0
4.398678583E0,1.889852259E-1,2.968725527E0,7.828568065E0,8.374695494E0
4.408598583E0,-1.882411384E0,4.161115471E0,7.526838874E0,8.804070536E0
4.418517583E0,-3.922984689E0,1.034727375E0,6.108448198E0,7.333049093E0
4.428437583E0,-5.615161883E0,-6.349111408E-1,4.804409180E0,7.417243605E0
4.438356583E0,-5.767062605E0,-5.626418942E-1,4.598947377E0,7.397695180E0
4.448276583E0,-3.852250045E0,-1.609449617E0,5.704431324E0,7.068995346E0
4.458196583E0,-1.084963728E0,-2.739441583E0,6.246201582E0,6.906281248E0
4.468115583E0,2.027990097E0,-3.638817610E0,5.311465688E0,6.750215196E0
4.478035583E0,4.112288589E0,-2.254909135E0,4.276225512E0,6.346781647E0
4.487955583E0,5.072899289E0,-6.353005654E-1,4.500282630E0,6.811054085E0
4.497874583E0,4.428102846E0,-2.908849454E-1,5.464720041E0,7.039593311E0
4.507794583E0,4.679985401E0,-8.175705564E-1,5.025988247E0,6.916013507E0
4.517713583E0,5.305655894E0,-7.626792347E-1,3.283175336E0,6.285769990E0
4.527633583E0,1.552726947E0,-1.347151124E0,2.167855057E0,2.987536221E0
4.537553583E0,-4.036959494E0,-2.116250601E0,1.697956435E0,4.864012194E0
4.547472583E0,-6.805843270E0,-3.790703130E0,2.293614779E0,8.120936004E0
4.557392583E0,-8.001018827E0,-5.614095351E0,1.967625343E0,9.970251670E0
4.567312583E0,-9.485898192E0,-7.742492373E0,1.680290827E0,1.235928112E1
4.577231583E0,-1.014268786E1,-1.014597399E1,2.390109040E0,1.454398592E1
4.587151583E0,-8.814074163E0,-1.130616449E1,1.245745786E0,1.438989720E1
4.597070583E0,-5.801144856E0,-1.083924327E1,-6.861359659E-1,1.231313359E1
4.606990583E0,-3.386892078E0,-1.139038545E1,-8.318550119E-1,1.191234239E1
4.616910583E0,-2.500276430E0,-1.230993144E1,-7.157626382E-1,1.258165770E1
4.626829583E0,-2.328421499E0,-1.300044434E1,-1.883057794E0,1.334087727E1
4.636749583E0,-8.994865394E-1,-1.107047024E1,-5.825263451E0,1.254185320E1
4.646669583E0,3.559605087E0,-5.545240878E0,-1.020166638E1,1.214473062E1
4.656588583E0,7.883871031E0,-2.880214469E0,-1.064744056E1,1.355798836E1
4.666508583E0,9.897639238E0,-2.111563473E0,-9.623341674E0,1.396533808E1
4.676427583E0,6.673530135E0,6.194002318E-1,-9.063966619E0,1.127276151E1
4.686347583E0,3.337366161E0,1.707194012E0,-7.635488327E0,8.506068791E0
4.696267583E0,1.413490417E0,2.796768855E0,-7.008367431E0,7.677049253E0
4.706186583E0,-1.380489609E-1,4.259824657E0,-6.736487691E0,7.971538749E0
4.716106583E0,-1.063983626E0,5.201873664E0,-4.752870651E0,7.126102034E0
4.726026583E0,-1.505228260E0,6.089718397E0,-2.304190345E0,6.682789493E0
4.735945583E0,-1.351972007E0,7.719352017E0,-6.382078010E-1,7.862794228E0
4.745865583E0,-1.171492141E0,9.350987724E0,6.303193223E-1,9.445139898E0
4.755784583E0,-1.637985198E0,1.083587761E1,1.969409182E0,1.113453240E1
4.765704583E0,-2.749144745E0,1.150876467E1,3.309643342E0,1.228670827E1
4.775624583E0,-4.126740567E0,1.164387628E1,3.221716714E0,1.276672633E1
4.785543583E0,-5.876378056E0,1.173802347E1,2.079452904E0,1.329049052E1
4.795463583E0,-7.225416661E0,1.129655284E1,7.529430360E-1,1.343077344E1
4.805383583E0,-7.126071882E0,1.046758138E1,-1.552187249E0,1.275776021E1
4.815302583E0,-5.945792692E0,8.510563910E0,-3.523967770E0,1.096359875E1
4.825222583E0,-3.826975163E0,5.617677355E0,-4.771115134E0,8.304672021E0
4.835141583E0,-2.567049294E0,3.540093221E0,-5.170960604E0,6.772062880E0
4.845061583E0,-2.167121962E0,1.975961280E0,-3.045350949E0,4.227883984E0
4.854981583E0,-1.870121122E0,5.457890493E-1,-8.550643650E-1,2.127527618E0
4.864900583E0,-7.216936152E-1,-5.028897822E-1,-1.003586859E-1,8.853313916E-1
4.874820583E0,8.234794602E-1,-1.537885544E0,-1.841229737E-2,1.744577135E0
4.884740583E0,3.231487704E0,-2.530083781E0,-9.994824055E-1,4.224074076E0
4.894659583E0,7.247450724E0,-4.194766197E0,-3.222880602E0,8.972656508E0
4.904579583E0,1.087467857E1,-6.452135255E0,-2.592848378E0,1.290780950E1
4.914498583E0,1.321187147E1,-7.898520060E0,6.146926385E-1,1.540512947E1
4.924418583E0,1.184097305E1,-7.281194420E0,3.515737521E0,1.433823020E1
4.934338583E0,5.485982271E0,-5.390770304E0,6.588939636E0,1.012771107E1
4.944257583E0,-1.070231961E0,-4.820220051E0,7.673309872E0,9.124669976E0
4.954177583E0,-3.604097428E0,-4.311132220E0,7.200919166E0,9.133926654E0
4.964097583E0,-2.616269401E0,-3.439958484E0,6.578274314E0,7.870951207E0
4.974016583E0,-1.360273007E0,-1.150042069E0,4.826145034E0,5.144377057E0
4.983936583E0,3.128267683E-1,3.004400559E0,1.457267058E0,3.353790480E0
4.993855583E0,9.881247738E-1,5.168855606E0,-1.829190904E0,5.571301303E0
5.003775583E0,-7.436018166E-1,4.603179592E-1,-3.843672472E0,3.941909988E0
5.013695583E0,-9.420234253E-1,-7.351012514E0,-5.535801718E-1,7.431772610E0
5.023614583E0,-2.959904417E-1,-1.208498789E1,2.585870311E0,1.236208995E1
5.033534583E0,6.815447322E-1,-1.531823268E1,7.762974000E-1,1.535302554E1
5.043454583E0,2.423107363E0,-1.635109889E1,-1.675845920E0,1.661440169E1
5.053373583E0,5.289242175E0,-1.196787167E1,-1.418109132E0,1.316119556E1
5.063293583E0,2.720521747E0,-5.817327025E0,-2.712310503E0,6.971309816E0
5.073213583E0,-4.551168316E0,-7.553503346E-1,-2.967952525E0,5.485656694E0
5.083132583E0,-8.045103325E0,2.092761751E0,-1.587386318E0,8.463045231E0
5.093052583E0,-9.150389636E0,4.355848802E0,-2.008207212E0,1.033130899E1
5.102971583E0,-9.966202519E0,5.103822874E0,-3.952276901E0,1.187411863E1
5.112891583E0,-8.115193314E0,3.050240391E0,-3.692990894E0,9.423296170E0
5.122811583E0,-5.089660333E0,-4.786115581E-1,-1.836953668E0,5.432136790E0
5.132730583E0,-4.376390655E0,-3.844842499E0,-1.394406274E0,5.989989805E0
5.142650583E0,-4.644657693E0,-7.948376929E0,-7.899860242E-1,9.239784565E0
5.152570583E0,-3.382533856E0,-1.171031000E1,4.715700486E-1,1.219816683E1
5.162489583E0,-2.033501683E0,-1.229022633E1,2.341612818E0,1.267548590E1
5.172409583E0,-8.614775911E-1,-9.194624991E0,2.279739043E0,9.512122922E0
5.182328583E0,-5.108574906E-1,-4.281652313E0,2.115908539E-1,4.317208889E0
5.192248583E0,-9.061606975E-1,2.285676599E-3,-1.788495745E0,2.004956225E0
5.202168583E0,-7.109457019E-1,2.364404680E0,-2.049493233E0,3.208781044E0
5.212087583E0,-1.060191561E0,3.973162571E0,-8.838110313E-1,4.206084747E0
5.222007583E0,-1.182743646E0,4.780700474E0,1.317386165E0,5.097988414E0
5.231927583E0,-2.982659149E0,4.874634240E0,3.132329744E0,6.516886081E0
5.241846583E0,-4.334027870E0,4.871655083E0,4.327187797E0,7.825686875E0
5.251766583E0,-4.031367509E0,5.443550196E0,3.645021506E0,7.692226239E0
5.261685583E0,-2.851004704E0,6.484014859E0,-1.855411866E0,7.322105551E0
5.271605583E0,-1.323592984E0,6.166017544E0,-1.050490650E1,1.225253979E1
5.281525583E0,6.629842079E-1,4.262979230E0,-8.006456738E0,9.094827621E0
5.291444583E0,1.262216516E0,3.971591424E0,-1.466638391E0,4.417890576E0
5.301364583E0,9.318805526E-1,4.254704250E0,1.749422311E0,4.693760544E0
5.311284583E0,1.060969386E0,3.785725395E0,1.144053935E0,4.094658986E0
5.321203250E0,1.373267128E0,2.820253027E0,-9.746665299E-1,3.284762485E0
5.331123250E0,1.479888913E0,2.462632055E0,-1.346644170E0,3.173023535E0
5.341043250E0,1.659044384E0,2.551907344E0,-3.122664589E-1,3.059766282E0
5.350962250E0,2.096967215E0,2.843376426E0,8.656931412E-1,3.637510909E0
5.360882250E0,2.421979873E0,3.177323191E0,1.677203059E0,4.332941180E0
5.370801250E0,2.343611396E0,3.207150423E0,1.800917716E0,4.361379694E0
5.380721250E0,2.295418352E0,2.996584001E0,1.912220636E0,4.231435790E0
5.390641250E0,1.780349405E0,2.994967246E0,2.415567816E0,4.239627423E0
5.400560250E0,1.392330220E0,2.966008911E0,3.194312276E0,4.575961453E0
5.410480250E0,9.789931771E-1,2.737397981E0,3.867942510E0,4.838672815E0
5.420400250E0,9.005349451E-1,2.278089252E0,3.980118418E0,4.673542174E0
5.430319250E0,2.646346309E0,1.952502251E-1,3.333344446E0,4.260569989E0
5.440239250E0,4.778223594E0,-1.312243831E0,2.266425226E0,5.448861155E0
5.450159250E0,7.206947061E0,-1.169565922E-1,1.672411265E0,7.399373232E0
5.460078250E0,8.357321252E0,1.977699657E0,3.931953149E0,9.445441758E0
5.469998250E0,3.899636465E0,2.994971924E0,7.513515408E0,8.979417307E0
5.479917250E0,-2.112913595E0,2.090116471E0,8.596293447E0,9.095562201E0
5.489837250E0,-4.379858931E0,2.382477254E0,7.287381359E0,8.829795535E0
5.499757250E0,-3.830499279E0,2.419560295E-1,5.725155026E0,6.892653155E0
5.509676250E0,-4.388839377E0,-2.662777569E0,4.826931485E0,7.046386522E0
5.519596250E0,-4.164739575E0,-3.959794081E0,4.870288589E0,7.532910184E0
5.529516250E0,-1.651709783E0,-4.924468889E0,5.052335801E0,7.246008287E0
5.539435250E0,1.739819722E0,-5.164209409E0,4.692004645E0,7.191031850E0
5.549355250E0,3.901310230E0,-3.467897065E0,5.070574436E0,7.277173674E0
5.559274250E0,5.592775233E0,-2.167342402E0,6.236506898E0,8.652775635E0
5.569194250E0,6.252411325E0,-1.106988435E0,6.685563705E0,9.220348845E0
5.579114250E0,4.659027518E0,-1.027396721E-1,5.202182397E0,6.984253327E0
5.589033250E0,4.243013327E0,7.439412475E-1,3.362550704E0,5.464737680E0
5.598953250E0,2.407055440E0,1.278272093E0,2.856120433E0,3.947824636E0
5.608873250E0,-1.676141204E0,-6.142090738E-2,4.111420569E0,4.440382975E0
5.618792250E0,-4.582475186E0,-5.883281279E-1,4.442946587E0,6.409756875E0
5.628712250E0,-6.546733848E0,-1.108343235E0,3.693878501E0,7.598216053E0
5.638632250E0,-8.012665896E0,-3.244535766E0,2.896316532E0,9.116933506E0
5.648551250E0,-9.184588830E0,-6.463507504E0,2.499034773E0,1.150559760E1
5.658471250E0,-9.732239048E0,-1.157626375E1,1.207359693E0,1.517181851E1
5.668390250E0,-8.313046719E0,-1.553043164E1,-1.216785112E-1,1.761578436E1
5.678310250E0,-6.065636054E0,-1.519444596E1,-2.582364321E-1,1.636245137E1
5.688230250E0,-5.380889679E0,-1.386476339E1,-1.070843287E0,1.491081295E1
5.698149250E0,-4.019247401E0,-1.318506667E1,-2.962995840E0,1.409892468E1
5.708069250E0,1.476839443E0,-1.009609958E1,-6.158557667E0,1.191805832E1
5.717989250E0,6.505955951E0,-6.864535282E0,-8.751663322E0,1.288568657E1
5.727908250E0,8.974621164E0,-4.516026843E0,-1.065449698E1,1.464433780E1
5.737828250E0,8.186981335E0,-2.645263404E0,-1.022969560E1,1.336677799E1
5.747748250E0,6.772010695E0,-2.916252029E-1,-9.711848638E0,1.184336008E1
5.757667250E0,4.868579448E0,1.767602182E0,-8.297723506E0,9.781600007E0
5.767587250E0,3.139795761E0,3.846815935E0,-6.796233371E0,8.416953029E0
5.777506250E0,4.549554777E-1,4.985792733E0,-4.269269080E0,6.579648329E0
5.787426250E0,-1.790675587E0,5.693000017E0,-1.406621400E0,6.131504874E0
5.797346250E0,-1.389239090E0,6.015461097E0,7.304853424E-1,6.216861450E0
5.807265250E0,-1.692663097E0,7.369402007E0,1.765400121E0,7.764652722E0
5.817185250E0,-2.401668985E0,9.963331536E0,2.073080316E0,1.045627329E1
5.827105250E0,-3.410256090E0,1.173012037E1,2.547999357E0,1.247869670E1
5.837024250E0,-4.529185417E0,1.213039269E1,2.812704856E0,1.325033041E1
5.846944250E0,-5.621001497E0,1.191733886E1,2.870518032E0,1.348549210E1
5.856864250E0,-6.697929397E0,1.173530919E1,2.524913965E0,1.374608783E1
5.866783250E0,-7.827869908E0,1.131337177E1,1.321069911E0,1.382075084E1
5.876703250E0,-8.164831497E0,9.766100274E0,-6.462497690E-1,1.274593373E1
5.886622250E0,-6.752596770E0,7.295773283E0,-2.982887776E0,1.037899275E1
5.896542250E0,-4.149121077E0,4.706929663E0,-4.203168646E0,7.552285695E0
5.906462250E0,-2.237363979E0,3.127527133E0,-3.986727526E0,5.539063090E0
5.916381250E0,-4.895719445E-1,1.622758464E0,-3.092851683E0,3.526862239E0
5.926301250E0,1.343216094E0,-3.134692311E-3,-2.571411901E0,2.901102974E0
5.936221250E0,3.098103944E0,-1.593961512E0,-3.025094440E0,4.614125889E0
5.946140250E0,3.864000317E0,-3.171683552E0,-5.041841218E0,7.100016752E0
5.956060250E0,5.738560352E0,-4.845533817E0,-6.303168080E0,9.805110950E0
5.965979250E0,7.843853856E0,-6.724238359E0,-1.886214706E0,1.050234406E1
5.975899250E0,9.273156021E0,-7.378816025E0,4.632908883E0,1.272407927E1
5.985819250E0,7.444479672E0,-6.577865594E0,8.636491885E0,1.316349442E1
5.995738250E0,3.036754957E0,-4.621350984E0,1.028121542E1,1.167399486E1
6.005658250E0,-6.003046873E-1,-2.487186853E0,9.560999830E0,9.897433097E0
6.015578250E0,-9.175251997E-1,-1.770149814E0,7.939210834E0,8.185740744E0
6.025497250E0,9.896785252E-1,-2.751055908E0,6.065647749E0,6.733487566E0
6.035417250E0,1.279933872E0,-2.805494070E0,3.825042950E0,4.913245492E0
6.045337250E0,9.047279835E-2,-1.722842331E0,1.421953384E0,2.235692835E0
6.055256250E0,-2.410114118E0,-2.536597579E0,-1.528876739E0,3.818434421E0
6.065176250E0,-4.229563854E0,-6.364492509E0,-1.929869433E0,7.881647754E0
6.075095250E0,-4.040539452E0,-9.899532566E0,4.356997780E0,1.154600077E1
6.085015250E0,-9.663462344E-1,-1.101147184E1,6.594675754E0,1.287152226E1
6.094935250E0,1.844500815E0,-1.170218237E1,2.414543677E0,1.209021409E1
6.104854250E0,4.054008513E0,-1.054973710E1,1.219091254E0,1.136741489E1
6.114774250E0,1.572545207E0,-6.398220418E0,-1.081968784E-2,6.588644778E0
6.124694250E0,-6.523273650E0,-1.577950081E0,-3.383556534E0,7.516081452E0
6.134613250E0,-1.033740833E1,3.464802718E-1,-4.611933751E0,1.132483962E1
6.144533250E0,-1.030567081E1,1.252187079E0,-3.548421703E0,1.097114943E1
6.154453250E0,-9.114085443E0,1.258679243E0,-2.247565324E0,9.471133870E0
6.164372250E0,-6.023891028E0,-2.070692021E-1,-2.065345034E0,6.371482628E0
6.174292250E0,-2.233584924E0,-2.321774384E0,-1.663384919E0,3.625794712E0
6.184211250E0,-9.011807701E-1,-4.462525989E0,-1.091928931E0,4.681727648E0
6.194131250E0,-7.373666382E-1,-7.284916758E0,-1.620635925E0,7.499345473E0
6.204051250E0,-1.075886218E-1,-9.709836611E0,-1.362818738E0,9.805599280E0
6.213970250E0,3.448284334E-1,-9.409828255E0,4.422728670E-1,9.426525326E0
6.223890250E0,5.543936656E-1,-6.705330802E0,7.993059012E-1,6.775522373E0
6.233810250E0,7.931432283E-1,-2.406320445E0,-1.159540871E-1,2.536316150E0
6.243729250E0,5.909644912E-1,1.848363925E0,-1.285008085E0,2.327430774E0
6.253649250E0,8.319514909E-1,3.656469769E0,-1.012406214E0,3.884183415E0
6.263569250E0,1.989356228E0,4.872938547E0,1.158095147E0,5.389271997E0
6.273488250E0,-1.120944862E-1,6.009654227E0,2.980620225E0,6.709143465E0
6.283408250E0,-2.302881738E0,5.981084146E0,2.574644827E0,6.906911600E0
6.293328250E0,-4.277201997E0,6.338795750E0,1.233781506E0,7.745773382E0
6.303247250E0,-5.940022659E0,6.758481408E0,-4.695635473E0,1.014938090E1
6.313167250E0,-4.763176369E0,5.450351678E0,-9.334310296E0,1.181200793E1
6.323086083E0,-2.238105260E0,4.863675388E0,-4.695145477E0,7.121014288E0
6.333006083E0,-3.132198474E-1,5.425659471E0,6.799376249E-1,5.477061487E0
6.342926083E0,3.333731532E-1,6.413109183E0,2.310356526E0,6.824723755E0
6.352845083E0,7.509247233E-1,6.362360029E0,1.206060734E0,6.519056341E0
6.362765083E0,1.118337442E0,5.387727998E0,-3.269108105E-1,5.512273786E0
6.372685083E0,1.032610683E0,4.527290919E0,-6.360047163E-1,4.686912618E0
6.382604083E0,7.969928889E-1,3.767530029E0,3.970946476E-2,3.851111142E0
6.392524083E0,8.578952944E-1,3.070357736E0,-6.496358916E-2,3.188620585E0
6.402443083E0,8.500588560E-1,2.875104003E0,1.244123769E-1,3.000716835E0
6.412363083E0,8.783818915E-1,2.961067429E0,1.202920194E0,3.314587766E0
6.422283083E0,1.109245461E0,2.763122222E0,2.330160461E0,3.780862029E0
6.432202083E0,1.189556968E0,1.982639970E0,2.759873509E0,3.600390092E0
6.442122083E0,1.484930820E0,6.084571677E-1,2.326977237E0,2.826669901E0
6.452042083E0,2.315780111E0,4.628316772E-1,2.276516935E0,3.280179879E0
6.461961083E0,3.101359381E0,-7.754109621E-2,2.109129862E0,3.751382600E0
6.471881083E0,4.860275525E0,-1.161993193E0,2.364585359E0,5.528450983E0
6.481801083E0,6.676067827E0,-3.764599990E0,3.527407687E0,8.437102565E0
6.491720083E0,3.835523792E0,-5.296714917E0,7.422570155E0,9.892470842E0
6.501640083E0,-3.514682391E-1,-2.528051873E0,1.134300546E1,1.162662243E1
6.511559083E0,-1.197955031E0,1.348806471E0,1.146700619E1,1.160804058E1
6.521479083E0,-1.896690870E0,8.876231235E-1,9.027655410E0,9.267355246E0
6.531399083E0,-3.697849930E0,-1.421562206E0,7.547770736E0,8.524305033E0
6.541318083E0,-3.822366680E0,-1.353283099E0,6.726503570E0,7.854152561E0
6.551238083E0,-1.465260495E0,-2.584336002E0,5.979970837E0,6.677262320E0
6.561158083E0,5.866356513E-1,-3.732980002E0,5.639141314E0,6.788165867E0
6.571077083E0,2.276127218E0,-4.226448165E0,4.303340220E0,6.446887331E0
6.580997083E0,4.153278740E0,-4.679831911E0,1.788639879E0,6.507671137E0
6.590917083E0,4.176597436E0,-3.953314782E0,1.321505821E0,5.900766182E0
6.600836083E0,2.996476412E0,-2.724775012E0,3.646908402E0,5.450065197E0
6.610756083E0,1.886874272E0,-2.016698831E0,4.631147994E0,5.392114653E0
6.620676083E0,1.074293437E0,-5.043118250E-1,3.369559761E0,3.572445911E0
6.630595083E0,5.009602010E-3,1.143877934E0,2.215079656E0,2.493002147E0
6.640515083E0,-1.480665277E0,1.578459374E0,1.537580466E0,2.654817761E0
6.650434083E0,-2.258889042E0,1.281553550E0,6.455419636E-1,2.676132215E0
6.660354083E0,-3.203911650E0,-2.064885736E-2,5.600732124E-1,3.252561797E0
6.670274083E0,-4.748221238E0,-1.995819594E0,1.989331523E0,5.521443714E0
6.680193083E0,-6.473034373E0,-3.503800138E0,3.345330069E0,8.085049330E0
6.690113083E0,-8.456685326E0,-6.734458122E0,3.901540903E0,1.149306201E1
6.700033083E0,-1.007654649E1,-1.229412642E1,2.872986434E0,1.615352546E1
6.709952083E0,-1.042538203E1,-1.615123053E1,1.168149726E0,1.925916436E1
6.719872083E0,-9.689925672E0,-1.711278526E1,-4.115714765E-1,1.967006533E1
6.729792083E0,-7.427614548E0,-1.348684030E1,-2.426562044E0,1.558693435E1
6.739711083E0,-3.522405978E0,-8.010782508E0,-5.520106037E0,1.034657194E1
6.749631083E0,3.215399382E0,-4.140412234E0,-8.921762334E0,1.034792974E1
6.759550083E0,6.230306511E0,-2.560105725E0,-9.488699008E0,1.163641996E1
6.769470083E0,5.383878776E0,-9.270468056E-2,-9.555112853E0,1.096790438E1
6.779390083E0,4.762054288E0,1.690014893E0,-1.016535868E1,1.135199668E1
6.789309083E0,3.424822381E0,4.118957630E0,-1.044413054E1,1.173776312E1
6.799229083E0,3.517123019E0,5.913057055E0,-8.882550906E0,1.123539535E1
6.809149083E0,4.228894640E0,6.072720541E0,-6.693790737E0,9.978392610E0
6.819068083E0,4.297972184E0,6.470392016E0,-3.265087559E0,8.426110283E0
6.828988083E0,4.185081453E0,8.034178972E0,8.298842078E-1,9.096793189E0
6.838908083E0,1.087450695E0,9.564474245E0,3.797384158E0,1.034803571E1
6.848827083E0,-2.313971275E0,1.018788684E1,3.157841146E0,1.091418627E1
6.858747083E0,-4.523082093E0,1.043253434E1,1.642378796E0,1.148884035E1
6.868666083E0,-6.745878904E0,1.065043551E1,1.040579853E0,1.264995910E1
6.878586083E0,-8.083783826E0,1.036399328E1,1.860525548E-2,1.314382987E1
6.888506083E0,-7.945583714E0,9.495422137E0,-1.738532165E0,1.250271315E1
6.898425083E0,-6.603833663E0,8.133973401E0,-2.771931052E0,1.083770013E1
6.908345083E0,-4.589824844E0,6.505932562E0,-3.017443358E0,8.514611854E0
6.918265083E0,-2.835468359E0,4.902885062E0,-2.616205081E0,6.238805316E0
6.928184083E0,-1.715536966E0,3.479648214E0,-2.052741361E0,4.389164598E0
6.938104083E0,-7.979566562E-1,2.484532217E0,-9.205979115E-1,2.767152991E0
6.948024083E0,6.079952377E-1,1.401805049E0,5.481717896E-1,1.623332349E0
6.957943083E0,2.375714803E0,-8.479339778E-2,1.154935019E0,2.642931259E0
6.967863083E0,4.662744885E0,-1.788862073E0,1.131926225E0,5.120788451E0
6.977782083E0,7.463630472E0,-3.896982706E0,1.357835449E0,8.528538629E0
6.987702083E0,9.891196775E0,-6.717923951E0,1.348881900E0,1.203269539E1
6.997622083E0,1.086020320E1,-1.035765607E1,-2.994326976E-1,1.501048676E1
7.007541083E0,8.624451883E0,-1.311017787E1,-1.461460097E0,1.576051394E1
7.017461083E0,4.418774198E0,-1.209826341E1,1.629500304E0,1.298263510E1
7.027381083E0,4.546233559E-1,-7.952740121E0,5.604910544E0,9.740009242E0
7.037300083E0,-1.574737036E0,-3.442751698E0,8.078755220E0,8.921805977E0
7.047220083E0,-1.951508516E0,6.667147315E-1,9.310881672E0,9.536530372E0
7.057140083E0,-2.851958969E0,4.856311405E0,8.322436763E0,1.004889965E1
7.067059083E0,-4.277544059E0,7.805960975E0,5.428209441E0,1.042573104E1
7.076979083E0,-6.144638954E0,8.508055454E0,4.414960936E0,1.138575758E1
7.086898083E0,-7.868743114E0,3.169490846E0,4.632479697E0,9.665539745E0
7.096818083E0,-7.698723625E0,-4.077066423E0,6.401180863E0,1.081054728E1
7.106738083E0,-6.449142650E0,-8.490534858E0,5.694160105E0,1.208735217E1
7.116657083E0,-4.417873726E0,-1.248856271E1,5.898215067E-1,1.326007905E1
7.126577083E0,-2.613665928E-1,-1.841333116E1,-3.669098001E0,1.877714986E1
7.136497083E0,6.472889362E0,-2.109375562E1,-3.729776897E0,2.237757937E1
7.146416083E0,6.305501704E0,-1.392137613E1,-4.833067845E0,1.602880563E1
7.156336083E0,1.304478729E-1,-1.955831071E0,-8.354556103E0,8.581427591E0
7.166256083E0,-4.872428962E0,2.886914794E0,-6.783520355E0,8.836910627E0
7.176175083E0,-7.827941828E0,3.205472857E0,-4.603822786E0,9.630519910E0
7.186095083E0,-1.057805049E1,2.868258083E0,-4.654679236E0,1.190748065E1
7.196015083E0,-1.004510485E1,6.991012895E-1,-4.441687097E0,1.100551945E1
7.205934083E0,-7.087757417E0,-2.619722766E0,-2.341842028E0,7.910971916E0
7.215854083E0,-4.885596892E0,-6.242858729E0,-3.658097050E-1,7.935751939E0
7.225773083E0,-2.780105460E0,-8.642516856E0,1.240049429E0,9.162958396E0
7.235693083E0,-5.284014764E-1,-7.852892482E0,2.058284229E0,8.135334193E0
7.245613083E0,9.865164971E-1,-5.867214299E0,1.906710951E0,6.247636760E0
7.255532083E0,1.526812233E0,-3.047855312E0,7.429562840E-1,3.488919838E0
7.265452083E0,1.992265656E0,-3.937257743E-1,1.373043180E-1,2.035434820E0
7.275372083E0,1.956250608E0,1.654480194E0,1.362939191E-1,2.565696238E0
7.285291083E0,1.364304223E0,3.906644061E0,7.624941704E-1,4.207682401E0
7.295211083E0,4.475175270E-1,4.851298002E0,1.830022086E0,5.204262203E0
7.305131083E0,-7.400812081E-1,4.902363490E0,-1.419171864E-1,4.959942386E0
7.315050083E0,-4.791759898E0,5.117638675E0,-9.610184854E0,1.189566482E1
7.324969708E0,-5.579184549E0,5.138498032E0,-9.941473475E0,1.250457345E1
7.334888708E0,-2.899521098E0,5.458555321E0,-3.097403155E0,6.913534198E0
7.344808708E0,-9.655060626E-1,6.882645278E0,8.655975392E-1,7.003732368E0
7.354728708E0,-1.324387036E-2,7.339454323E0,1.267814640E0,7.448162130E0
7.364647708E0,5.035444511E-1,6.757762785E0,8.322299646E-1,6.827409581E0
7.374567708E0,5.669672258E-1,5.610768285E0,8.244486362E-1,5.699288388E0
7.384487708E0,2.805656330E-1,4.508055333E0,8.907331114E-1,4.603768613E0
7.394406708E0,-1.138201457E-1,3.163330804E0,3.933210008E-1,3.189720711E0
7.404326708E0,3.512323040E-1,1.947133337E0,3.072945714E-1,2.002279281E0
7.414246708E0,1.011911101E0,1.523001457E0,4.286266351E-1,1.878089004E0
7.424165708E0,1.336760183E0,2.162042486E0,3.120682383E-1,2.561004116E0
7.434085708E0,1.512441678E0,3.201027803E0,5.199459641E-1,3.578323998E0
7.444004708E0,1.241271789E0,3.854775749E0,1.328562679E0,4.262057077E0
7.453924708E0,7.729890454E-1,3.814452181E0,2.294356205E0,4.517922963E0
7.463844708E0,6.809904161E-1,3.138290103E0,2.626009108E0,4.148317316E0
7.473763708E0,1.646575635E0,2.411750754E0,2.409606580E0,3.786021248E0
7.483683708E0,3.713992046E0,2.405387814E0,1.901941377E0,4.816327279E0
7.493603708E0,4.537097577E0,5.146005857E-1,1.485124948E0,4.801631420E0
7.503522708E0,5.872379730E0,1.500994876E0,2.438602923E0,6.533346273E0
7.513442708E0,8.249372880E0,2.767984182E0,3.738537780E0,9.470509705E0
7.523362708E0,2.082641683E0,-3.404799176E0,7.131813848E0,8.172687598E0
7.533281708E0,-1.469512298E0,-2.901217083E0,8.057022289E0,8.688621014E0
7.543201708E0,-2.517176052E0,-1.927189069E0,6.186478121E0,6.951456289E0
7.553121708E0,-4.189814482E0,-2.503485966E0,5.062156785E0,7.031885856E0
7.563040708E0,-4.872690625E0,-3.632811935E0,4.441915723E0,7.528017785E0
7.572960708E0,-4.152745181E0,-4.706841955E0,4.179700845E0,7.541190416E0
7.582879708E0,-2.521350380E0,-5.343411950E0,4.032947427E0,7.153595177E0
7.592799708E0,-4.263061675E-1,-5.798624706E0,3.878023109E0,6.988908975E0
7.602719708E0,1.807339567E0,-4.549968175E0,3.753959227E0,6.169351391E0
7.612638708E0,3.618332182E0,-1.765143428E0,4.586187583E0,6.102554846E0
7.622558708E0,4.658594239E0,7.418362498E-3,5.989545068E0,7.587964512E0
7.632478708E0,4.402336505E0,1.166214883E0,5.800624453E0,7.374813076E0
7.642397708E0,3.374265600E0,1.666749991E0,4.342783783E0,5.746607248E0
7.652317708E0,1.420278449E0,2.847043800E0,3.469972826E0,4.707819101E0
7.662237708E0,-9.082389441E-1,3.439075554E0,3.413879317E0,4.930183631E0
7.672156708E0,-2.242646061E0,2.863387937E0,3.635307527E0,5.142364500E0
7.682076708E0,-3.217268153E0,9.779263526E-1,3.008584242E0,4.512065321E0
7.691996708E0,-4.192061275E0,-1.321454365E0,1.809448950E0,4.753285692E0
7.701915708E0,-5.683185466E0,-3.352281239E0,1.777978359E0,6.833563755E0
7.711835708E0,-7.301042794E0,-4.553806288E0,1.915586732E0,8.815432497E0
7.721754708E0,-7.992845004E0,-6.018067201E0,1.912083665E0,1.018620479E1
7.731674708E0,-8.358428130E0,-1.083180561E1,1.307184528E0,1.374409200E1
7.741594708E0,-8.144232926E0,-1.486816898E1,-8.870460033E-2,1.695284187E1
7.751513708E0,-7.341823615E0,-1.645950276E1,-1.086015935E0,1.805538799E1
7.761433708E0,-6.774581131E0,-1.539708004E1,-2.558532532E0,1.701502607E1
7.771353708E0,-2.362977667E0,-1.065642072E1,-4.349665079E0,1.175000222E1
7.781272708E0,3.502685367E0,-5.017179417E0,-7.657893687E0,9.802256363E0
7.791192708E0,8.396892868E0,-2.691181589E0,-1.066716790E1,1.383975214E1
7.801112708E0,8.695758678E0,-8.802930540E-1,-1.123321697E1,1.423293007E1
7.811031708E0,5.713320846E0,1.049992701E0,-1.134991570E1,1.275010220E1
7.820951708E0,3.965099845E0,2.925910460E0,-9.914821866E0,1.107188608E1
7.830870708E0,4.297224618E0,4.218301240E0,-7.586424340E0,9.685764762E0
7.840790708E0,3.161417010E0,4.252278240E0,-5.300575833E0,7.494833681E0
7.850710708E0,2.159616184E0,4.416086233E0,-2.762106853E0,5.638704988E0
7.860629708E0,1.305091517E0,5.006469657E0,-1.441266445E0,5.370777528E0
7.870549708E0,-5.072145291E-2,5.664276155E0,-1.701601151E-1,5.667058452E0
7.880469708E0,-1.221235866E0,7.052278851E0,2.144213448E0,7.471526307E0
7.890388708E0,-2.627679950E0,8.047674345E0,4.143543418E0,9.425429239E0
7.900308708E0,-4.677130498E0,8.652799185E0,4.835714588E0,1.096041144E1
7.910228708E0,-6.605643377E0,8.978142357E0,3.748450272E0,1.175978078E1
7.920147708E0,-8.215847869E0,9.258648494E0,1.943703068E0,1.252999241E1
7.930067708E0,-8.835621153E0,9.344387387E0,6.053710073E-2,1.286038264E1
7.939987708E0,-7.202057034E0,8.711833844E0,-1.880173947E0,1.145865300E1
7.949906708E0,-4.479605121E0,6.676325689E0,-2.691269882E0,8.478391376E0
7.959826708E0,-2.843653292E0,5.143618439E0,-3.022264388E0,6.608877115E0
7.969745708E0,-2.109470316E0,4.458346399E0,-2.875240243E0,5.709091354E0
7.979665708E0,-1.329838688E0,3.943272774E0,-2.349394877E0,4.778862562E0
7.989585708E0,-3.803420824E-1,3.435280711E0,-1.417204276E0,3.735543016E0
7.999504708E0,1.320875345E0,2.438595906E0,-9.833616319E-1,2.942526426E0
8.009424708E0,3.006233661E0,1.746037066E0,-2.158329504E0,4.092001040E0
8.019344708E0,5.180559978E0,5.771728098E-2,-3.627792977E0,6.324746229E0
8.029263708E0,7.783254483E0,-2.578539657E0,-2.841770196E0,8.677763246E0
8.039183708E0,9.359441628E0,-4.899379656E0,8.227412492E-1,1.059622441E1
8.049103708E0,9.937597940E0,-6.735724629E0,4.414986956E0,1.279132319E1
8.059022708E0,6.672596335E0,-8.136953727E0,7.398032314E0,1.286329817E1
8.068942708E0,3.982297383E-1,-8.421999643E0,8.010367355E0,1.162990327E1
8.078861708E0,-2.703246149E0,-6.390199792E0,7.030474584E0,9.877740936E0
8.088781708E0,-2.389762884E0,-3.723905708E0,6.987534971E0,8.270676232E0
8.098701708E0,-9.161168978E-1,-1.715750243E0,5.531968283E0,5.863935722E0
8.108620708E0,-1.033887715E0,4.210503978E-1,2.161302229E0,2.432577762E0
8.118540708E0,-2.507263560E0,1.010935054E0,-1.694337155E0,3.190476240E0
8.128460708E0,-4.396623191E0,-1.963148861E0,-4.610704374E0,6.666546614E0
8.138379708E0,-4.644006021E0,-5.983096758E0,-2.130203520E0,7.867782774E0
8.148299708E0,-1.529337792E0,-6.261277458E0,5.065487359E0,8.197660134E0
8.158219708E0,1.138059370E0,-5.733279147E0,3.827323072E0,6.986706721E0
8.168138708E0,2.133954801E0,-8.186580800E0,-2.419688934E-1,8.463593636E0
8.178058708E0,2.660585156E0,-1.113890372E1,1.934590183E0,1.161449648E1
8.187978708E0,1.671745560E0,-1.304490540E1,1.874546587E0,1.328451034E1
8.197897708E0,-2.286675888E0,-9.931894566E0,-3.107303953E-1,1.019646849E1
8.207817708E0,-5.422803106E0,-3.301564829E0,-1.812395362E0,6.602416285E0
8.217736708E0,-7.039835976E0,7.602555639E-1,-2.928651050E0,7.662524132E0
8.227656708E0,-8.373419806E0,2.616111526E0,-3.767159901E0,9.547234808E0
8.237576708E0,-9.077495906E0,3.086538152E0,-4.354115395E0,1.053024076E1
8.247495708E0,-7.831903902E0,1.396681134E0,-3.848177751E0,8.837302129E0
8.257415708E0,-6.522787161E0,-1.457792138E0,-2.033178332E0,6.986109389E0
8.267335708E0,-5.197331547E0,-4.175097333E0,-8.763609476E-1,6.723964712E0
8.277254708E0,-3.429010742E0,-6.318108301E0,-4.186309661E-1,7.200823499E0
8.287174708E0,-1.773219310E0,-7.445764890E0,1.178115136E0,7.744138221E0
8.297094708E0,-5.135387313E-1,-6.853171218E0,2.124279998E0,7.193208136E0
8.307013708E0,5.075393419E-1,-4.221932361E0,1.771664681E0,4.606637036E0
8.316934125E0,9.363497257E-1,-4.845839041E-1,1.314923318E0,1.685406687E0
8.326853125E0,7.089159872E-1,1.908046455E0,1.990386215E0,2.846900145E0
8.336773125E0,5.460681076E-1,3.465438311E0,2.852378507E0,4.521450675E0
8.346693125E0,1.020689233E-1,4.594304103E0,3.482934349E0,5.766184175E0
8.356612125E0,-7.980457532E-1,4.943905034E0,3.139313658E0,5.910529947E0
8.366532125E0,-2.489718112E0,5.718690344E0,-9.588015720E-1,6.310421221E0
8.376452125E0,-3.993109177E0,4.748888113E0,-1.124865245E1,1.284636295E1
8.386371125E0,-2.245543211E0,2.924129983E0,-1.086239474E1,1.147103395E1
8.396291125E0,-5.115731898E-1,3.688552857E0,-3.205043963E0,4.913190014E0
8.406211125E0,1.219825847E-1,4.667570300E0,3.298658471E-1,4.680801612E0
8.416130125E0,5.010616502E-1,4.630334061E0,9.450901437E-1,4.752289099E0
8.426050125E0,7.421746574E-1,3.782571992E0,2.712570119E-1,3.864227537E0
8.435969125E0,8.039537799E-1,3.119863188E0,-4.299881592E-2,3.222070280E0
8.445889125E0,7.693851140E-1,3.228203908E0,4.019364345E-1,3.342874036E0
8.455809125E0,1.072935421E0,3.700857153E0,5.852858216E-1,3.897447059E0
8.465728125E0,1.587317905E0,4.058650033E0,9.481329616E-1,4.459952279E0
8.475648125E0,1.930718741E0,4.194636388E0,1.110168882E0,4.749223540E0
8.485568125E0,2.247602308E0,3.816136179E0,9.692707193E-1,4.533662669E0
8.495487125E0,1.702152835E0,2.984224741E0,1.076501053E0,3.600246672E0
8.505407125E0,1.232353324E-1,2.547217877E0,1.203896095E0,2.820083628E0
8.515327125E0,-1.598938808E0,2.601379466E0,3.719254248E0,4.812133892E0
8.525246125E0,-1.613811347E0,2.518313920E0,7.331041934E0,7.917731235E0
8.535166125E0,2.166381266E0,1.376761424E0,8.365063550E0,8.750026743E0
8.545086125E0,7.181406423E0,2.470029953E0,6.629804657E0,1.008106919E1
8.555005125E0,1.069345347E1,6.977741470E0,3.837104294E0,1.333274888E1
8.564925125E0,1.352254574E1,7.588237562E0,4.184384465E-1,1.551179175E1
8.574844125E0,3.090691429E0,-6.099353439E0,8.298625731E-1,6.887899373E0
8.584764125E0,-2.192785977E0,-5.196550943E0,2.428839827E0,6.140986480E0
8.594684125E0,-1.722235390E0,-1.859043279E0,3.734331293E0,4.513021921E0
8.604603125E0,-3.971155514E0,-1.750300856E0,7.404898700E0,8.582898925E0
8.614523125E0,-5.368082523E0,-1.137063589E0,1.080137553E1,1.211523574E1
8.624443125E0,-5.272386991E0,-2.452234536E0,1.053706384E1,1.203500034E1
8.634362125E0,-4.636729161E0,-4.741454548E0,7.163040318E0,9.761649202E0
8.644282125E0,-2.272178594E0,-5.847795112E0,4.194967926E0,7.547003321E0
8.654202125E0,2.812563354E-1,-5.945347134E0,3.153924973E0,6.735985481E0
8.664121125E0,2.495781967E0,-4.803387671E0,3.536926954E0,6.466166795E0
8.674041125E0,3.343739626E0,-2.853865746E0,5.266136903E0,6.859835440E0
8.683961125E0,3.096989757E0,-6.993445337E-1,5.156795139E0,6.055820707E0
8.693880125E0,2.344407202E0,1.559987435E0,3.188849807E0,4.254241298E0
8.703800125E0,1.448088392E0,3.121029707E0,1.701853166E0,3.838501090E0
8.713719125E0,-1.095201033E-1,3.642475628E0,1.151984075E0,3.821870048E0
8.723639125E0,-2.777652260E0,3.794963411E0,1.638690227E0,4.980201304E0
8.733559125E0,-6.074465350E0,3.743924235E0,2.382606331E0,7.522825991E0
8.743478125E0,-8.234795187E0,3.566837216E0,2.044272985E0,9.203979114E0
8.753398125E0,-8.572913940E0,2.481917927E0,1.380164942E0,9.031036778E0
8.763318125E0,-8.763325594E0,-2.089695472E-1,1.936792829E0,8.977232881E0
8.773237125E0,-8.991825426E0,-4.783917612E0,3.209313308E0,1.067888028E1
8.783157125E0,-8.581209970E0,-1.116533781E1,2.601783216E0,1.432030757E1
8.793077125E0,-9.374868338E0,-1.604712904E1,9.823488942E-1,1.861084405E1
8.802996125E0,-1.087640233E1,-1.842259782E1,-6.139029720E-1,2.140245582E1
8.812916125E0,-8.314062966E0,-1.702189030E1,-2.595544530E0,1.912080656E1
8.822835125E0,1.934489537E-1,-1.121045493E1,-5.382773652E0,1.243728163E1
8.832755125E0,8.175269946E0,-7.248161745E0,-7.809890889E0,1.343001426E1
8.842675125E0,7.666107271E0,-4.481156972E0,-1.005534917E1,1.341491764E1
8.852594125E0,6.586946320E0,-2.054941961E0,-1.071712417E1,1.274627000E1
8.862514125E0,7.470100417E0,1.242218161E0,-1.016478098E1,1.267549914E1
8.872434125E0,7.930267518E0,3.739869191E0,-8.480544890E0,1.219817224E1
8.882353125E0,4.755477925E0,6.652581316E0,-4.585780325E0,9.375542099E0
8.892273125E0,1.061766800E0,6.458543803E0,-1.226692050E0,6.659197413E0
8.902193125E0,-4.695468389E-1,4.721641257E0,1.562966591E-1,4.747504507E0
8.912112125E0,-1.739075663E0,6.045131623E0,1.042481660E0,6.376109199E0
8.922032125E0,-3.122034259E0,7.829975490E0,6.629906398E-1,8.455481694E0
8.931951125E0,-4.511560739E0,8.764266996E0,1.280498420E0,9.940132418E0
8.941871125E0,-5.425335535E0,9.473204471E0,2.688039587E0,1.124283885E1
8.951791125E0,-6.786133475E0,9.975066898E0,2.905922922E0,1.240959126E1
8.961710125E0,-8.470467213E0,9.004429684E0,2.031384113E0,1.252817186E1
8.971630125E0,-8.270666100E0,7.502462416E0,1.110954017E0,1.122163441E1
8.981550125E0,-6.716170371E0,6.185634953E0,-2.849836430E-1,9.135110284E0
8.991469125E0,-4.529732131E0,4.903727646E0,-1.745390656E0,6.900101923E0
9.001389125E0,-2.769977790E0,3.872136133E0,-3.084880758E0,5.672980211E0
9.011309125E0,-1.796064527E0,3.318190218E0,-4.056993224E0,5.540345488E0
9.021228125E0,-1.076207523E0,2.868416542E0,-4.455305262E0,5.407012213E0
9.031148125E0,1.058946835E-1,2.290509907E0,-5.008113309E0,5.508071190E0
9.041067125E0,1.596292504E0,1.675413811E0,-5.947259758E0,6.381618903E0
9.050987125E0,2.360882902E0,6.988592148E-1,-7.060370228E0,7.477365849E0
9.060907125E0,3.078241537E0,-6.918197519E-1,-4.532844020E0,5.522758408E0
9.070826125E0,3.978485291E0,-9.957644534E-1,3.621829695E0,5.471521031E0
9.080746125E0,4.735033135E0,-2.165668344E0,8.623312261E0,1.007333969E1
9.090666125E0,3.564595101E0,-4.459385449E0,9.353591489E0,1.095819924E1
9.100585125E0,1.057589403E0,-6.064370132E0,8.577362502E0,1.055775677E1
9.110505125E0,6.662741438E-1,-7.169682171E0,7.537965540E0,1.042445146E1
9.120425125E0,1.531776081E0,-7.687021592E0,6.310493472E0,1.006275145E1
9.130344125E0,2.586025847E0,-6.536255053E0,4.229136715E0,8.203399122E0
9.140264125E0,1.986058106E0,-4.401682786E0,1.259764486E0,4.990615665E0
9.150183125E0,1.850095578E-1,-7.980391020E-1,-2.816720724E-2,8.196879506E-1
9.160103125E0,-2.179602698E0,2.326650378E0,-1.356058187E0,3.464514931E0
9.170023125E0,-4.266160407E0,8.829348260E-1,-2.793198253E0,5.175099517E0
9.179942125E0,-4.510464971E0,-4.248668169E0,-7.890490079E-1,6.246444893E0
9.189862125E0,-2.062546557E0,-7.991580251E0,4.996708900E0,9.648137284E0
9.199782125E0,1.340788476E-1,-1.005026677E1,4.615777418E0,1.106034540E1
9.209701125E0,2.169404715E-1,-1.121965143E1,1.385486054E-1,1.122260384E1
9.219621125E0,2.495472942E0,-9.202914004E0,1.700481409E-1,9.536767154E0
9.229541125E0,3.761696555E0,-7.060972492E0,3.054760873E-2,8.000539148E0
9.239460125E0,-7.774630424E-1,-2.964796783E0,-2.602448337E0,4.020846440E0
9.249380125E0,-5.512304097E0,3.471527016E-1,-4.265502303E0,6.978575883E0
9.259300125E0,-7.799694514E0,1.070356214E-1,-3.845806705E0,8.696948911E0
9.269219125E0,-8.567670157E0,2.929992986E-1,-3.585164144E0,9.292159192E0
9.279139125E0,-8.063717351E0,1.589156270E-1,-4.529414335E0,9.250101941E0
9.289058125E0,-5.720602384E0,-1.378426711E0,-4.938649557E0,7.682161888E0
9.298978125E0,-3.179212134E0,-3.321659955E0,-3.883701925E0,6.018634006E0
9.308898125E0,-2.029871877E0,-5.583105692E0,-2.680232970E0,6.517292212E0
9.318817375E0,-1.321971698E0,-6.750774778E0,-2.052002273E0,7.178529278E0
9.328737375E0,-3.417833497E-1,-6.276856195E0,-9.659617800E-1,6.359938813E0
9.338657375E0,1.024666290E0,-5.024277937E0,3.344107416E-1,5.138593225E0
9.348576375E0,1.348528582E0,-3.198438656E0,1.265741802E0,3.694677453E0
9.358496375E0,1.121952191E0,-4.971431386E-1,1.988241017E0,2.336456797E0
9.368415375E0,1.420904686E0,2.114330376E0,3.620715508E0,4.427069443E0
9.378335375E0,6.893241602E-1,3.708543903E0,5.243260256E0,6.459120976E0
9.388255375E0,-1.531502870E0,4.624236585E0,5.939437353E0,7.681535075E0
9.398174375E0,-3.476121174E0,4.713698984E0,4.895325197E0,7.633255224E0
9.408094375E0,-4.040111728E0,4.366279650E0,1.570745434E0,6.152571980E0
9.418014375E0,-3.773285444E0,4.110525945E0,-1.007834978E1,1.151986288E1
9.427933375E0,-4.183607370E0,2.327390050E0,-1.695403453E1,1.761699753E1
9.437853375E0,-1.824899925E0,2.082757750E0,-5.005153449E0,5.720113690E0
9.447773375E0,-1.328582413E0,4.277006115E0,2.202435052E0,4.990854906E0
9.457692375E0,-6.350608295E-1,5.623445633E0,3.805076171E0,6.819460954E0
9.467612375E0,7.279953787E-1,5.580734062E0,2.358838715E0,6.102351188E0
9.477532375E0,9.135612260E-1,4.519245150E0,-1.933329231E-1,4.614710008E0
9.487451375E0,6.812969564E-1,4.008145292E0,-5.823569512E-1,4.107132071E0
9.497371375E0,1.165716261E0,4.174459401E0,7.819949269E-1,4.404148245E0
9.507290375E0,2.869108853E0,3.261924800E0,1.569542808E0,4.619026265E0
9.517210375E0,3.479755218E0,2.523698621E0,1.641061419E0,4.601177424E0
9.527130375E0,4.354364778E0,3.063917613E0,6.832582587E-1,5.367953578E0
9.537049375E0,4.724844947E0,4.373597440E0,7.005069602E-1,6.476358880E0
9.546969375E0,3.569626046E0,4.382956493E0,6.888920510E-1,5.694480660E0
9.556889375E0,2.829831936E0,3.604480421E0,1.412348017E0,4.795305497E0
9.566808375E0,4.846923408E0,3.887525420E0,2.401900535E0,6.661429770E0
9.576728375E0,5.279937501E0,3.654691046E-1,2.210713394E0,5.735726753E0
9.586647375E0,2.242972921E0,-4.735692701E0,2.889557151E0,5.983916227E0
9.596567375E0,2.876125512E-1,-4.818299825E0,3.445762430E0,5.930599709E0
9.606487375E0,2.722004601E-1,-2.462941373E0,3.499859115E0,4.288261550E0
9.616406375E0,8.996835905E-1,-2.022639602E-1,3.724782790E0,3.837231828E0
9.626326375E0,3.551753739E-1,4.682777739E-1,3.616369565E0,3.663818015E0
9.636246375E0,-3.594853565E-1,-1.881452733E-1,3.233657606E0,3.259013635E0
9.646165375E0,-1.643163785E0,-1.626724631E0,3.228879261E0,3.971382823E0
9.656085375E0,-1.335685026E0,-2.489350322E0,3.948438789E0,4.855006528E0
9.666005375E0,-4.101315996E-1,-2.501540598E0,4.957143130E0,5.567690841E0
9.675924375E0,-3.608726084E-2,-3.251176448E0,5.447429824E0,6.343968969E0
9.685844375E0,-2.001212481E-1,-3.386442427E0,5.359790586E0,6.343137706E0
9.695764375E0,1.573862877E-1,-3.518186628E0,5.096909126E0,6.195231249E0
9.705683375E0,-2.517986476E-2,-3.088185312E0,4.783812947E0,5.694066110E0
9.715603375E0,1.084203590E0,-2.949733186E0,3.511574596E0,4.712491850E0
9.725522375E0,2.283437700E0,-3.405946984E0,8.305151955E-1,4.183816210E0
9.735442375E0,3.469840387E0,-3.693080941E0,1.704532067E-1,5.070275480E0
9.745362375E0,4.490686764E0,-2.995299368E0,1.541680387E0,5.613810144E0
9.755281375E0,5.304468910E0,-2.466359655E0,3.248118939E0,6.691083395E0
9.765201375E0,5.042682048E0,-1.905572498E0,2.372809467E0,5.889827973E0
9.775121375E0,3.240313199E0,-1.741489686E0,6.041167430E-1,3.727918051E0
9.785040375E0,7.397908938E-1,-8.070736349E-1,6.952339411E-4,1.094832819E0
9.794960375E0,-1.073664569E0,7.359288079E-1,1.290222048E0,1.832762873E0
9.804879375E0,-4.432998427E0,-7.385746729E-1,2.135928382E0,4.975857479E0
9.814799375E0,-6.093056572E0,-2.538934126E0,2.292999651E0,6.987801678E0
9.824719375E0,-7.048730761E0,-2.093979726E0,2.382298475E0,7.729469740E0
9.834638375E0,-7.449407705E0,-4.723135221E-1,1.020862750E0,7.533851337E0
9.844558375E0,-6.672544295E0,-5.894344211E-1,6.091921628E-3,6.698530989E0
9.854478375E0,-5.812618262E0,-2.420994033E0,-9.083637822E-1,6.361828977E0
9.864397375E0,-5.051452872E0,-4.280175891E0,-1.123477876E0,6.715600071E0
9.874317375E0,-4.013552797E0,-6.959170128E0,-2.244128038E0,8.341148937E0
9.884237375E0,-4.270495241E0,-8.755774500E0,-2.978600012E0,1.018689230E1
9.894156375E0,-4.605020880E0,-9.462513422E0,-3.182339225E0,1.099421032E1
9.904076375E0,-1.197197378E0,-8.807855065E0,-3.912928356E0,9.711982327E0
9.913995375E0,3.092790872E0,-7.162428115E0,-4.079235448E0,8.803743165E0
9.923915375E0,3.998295950E0,-4.238658321E0,-5.362584386E0,7.918958654E0
9.933835375E0,3.845947039E0,-1.830864962E0,-6.357268274E0,7.652335267E0
9.943754375E0,3.094464345E0,8.113836175E-1,-8.326639157E0,8.920032097E0
9.953674375E0,2.338790220E0,3.846390257E0,-8.669833294E0,9.768862116E0
9.963594375E0,2.569067168E0,6.375892825E0,-7.501873602E0,1.017498024E1
9.973513375E0,3.258587794E0,8.226413788E0,-4.777345927E0,1.005561099E1
9.983433375E0,3.987841713E0,8.295084658E0,-1.148034720E0,9.275197827E0
9.993353375E0,2.335860912E0,7.611275007E0,-4.014698267E-2,7.961743854E0
1.000327237E1,5.134999935E-1,7.105363383E0,5.953652519E-1,7.148729316E0
1.001319237E1,-2.714065544E-1,6.531082606E0,1.126931534E0,6.633149796E0
1.002311137E1,-1.799581189E0,6.387919963E0,-2.971291870E-1,6.643214558E0
1.003303137E1,-3.566324415E0,6.575748902E0,-6.739641094E-1,7.510883508E0
1.004295137E1,-5.050609118E0,6.770486326E0,-1.055393189E-1,8.447441986E0
1.005287037E1,-5.640243514E0,6.546719815E0,-1.339579564E-1,8.642327925E0
1.006279037E1,-5.321065646E0,6.137744502E0,-4.848663247E-1,8.137612828E0
1.007271037E1,-4.205162546E0,5.475249707E0,-8.714701903E-1,6.958535168E0
1.008262937E1,-3.111503131E0,4.998395237E0,-1.729433897E0,6.136476862E0
1.009254937E1,-2.240925811E0,4.553732613E0,-2.502672034E0,5.658762807E0
1.010246838E1,-8.164169008E-1,3.851312444E0,-1.828963448E0,4.340996589E0
1.011238837E1,1.165603410E0,3.565934406E0,-6.662112862E-1,3.810296179E0
1.012230837E1,2.221897948E0,4.813495168E0,3.339213297E-1,5.312068305E0
1.013222737E1,3.675716465E0,4.266650696E0,1.021416773E0,5.723503465E0
1.014214737E1,5.456676026E0,2.517722182E0,7.420818329E-1,6.055156785E0
1.015206737E1,6.842950870E0,-2.408982682E-1,2.687710682E-1,6.852462803E0
1.016198637E1,7.294800891E0,-3.375221620E0,-1.815092683E-2,8.037821252E0
1.017190637E1,8.247168480E0,-6.427770492E0,1.029208480E0,1.050672601E1
1.018182637E1,6.929588479E0,-9.098213176E0,2.515306113E0,1.170997200E1
1.019174537E1,1.914095546E0,-8.868036363E0,3.049960602E0,9.571211541E0
1.020166537E1,-5.838548617E-1,-5.720484270E0,2.734895665E0,6.367454835E0
1.021158438E1,1.037683727E0,-2.231268842E0,2.853567246E0,3.768049122E0
1.022150437E1,1.999758863E0,7.817177689E-1,2.290467807E0,3.139484186E0
1.023142437E1,7.692526746E-1,1.507035635E0,9.599081576E-2,1.694733111E0
1.024134337E1,-2.709202123E0,-1.657354100E0,-2.503613728E0,4.044092043E0
1.025126337E1,-4.160685700E0,-8.256974845E0,-3.245590896E0,9.799122376E0
1.026118337E1,-3.083088879E0,-1.344832937E1,2.154443445E0,1.396440569E1
1.027110238E1,-1.892834339E-1,-1.508666774E1,2.133854814E0,1.523800210E1
1.028102237E1,2.786485941E0,-1.261957309E1,-2.347833670E0,1.313508476E1
1.029094137E1,4.270879987E0,-7.865415464E0,-1.972974522E0,9.165031629E0
1.030086137E1,1.909387514E0,-6.023163634E0,-3.260583741E0,7.110250852E0
1.031078137E1,-3.640275906E0,-3.711146498E0,-2.762811442E0,5.887048842E0
1.032069975E1,-6.490912235E0,-2.076257985E0,-1.263060854E0,6.930953151E0
1.033061975E1,-7.799728428E0,-2.107975622E0,-1.549586115E0,8.226818456E0
1.034053975E1,-8.360243105E0,-1.549170086E0,-1.970215221E0,8.727848575E0
1.035045875E1,-6.946980438E0,-1.690602538E0,-2.784349369E0,7.672761924E0
1.036037875E1,-4.564673338E0,-2.438262615E0,-2.139097719E0,5.599741629E0
1.037029875E1,-2.982873742E0,-3.076980878E0,-1.866748740E0,4.674408833E0
1.038021775E1,-2.280509414E0,-4.521165960E0,-2.214957449E0,5.526997497E0
1.039013775E1,-1.641873012E0,-5.554211676E0,-1.864364246E0,6.084477658E0
1.040005675E1,-7.792253932E-1,-6.490691795E0,-7.389295989E-1,6.578927659E0
1.040997675E1,-2.986387919E-1,-5.988448130E0,-5.821575612E-2,5.996172546E0
1.041989675E1,1.364771562E-1,-3.768536335E0,-6.198513445E-1,3.821610631E0
1.042981575E1,4.985419388E-1,-1.138232448E0,-1.517961449E0,1.961714590E0
1.043973575E1,6.752958128E-1,9.091110563E-1,-1.964666506E0,2.267690858E0
1.044965575E1,3.161878210E-1,2.633867766E0,-1.190334209E0,2.907598609E0
1.045957475E1,-5.396720577E-1,4.188105633E0,1.686990421E-1,4.226101524E0
1.046949475E1,-1.391639226E0,4.942955446E0,1.347842265E0,5.309062728E0
1.047941375E1,-2.451150463E0,5.564040846E0,2.547455566E0,6.592133113E0
1.048933375E1,-3.637982628E0,6.072862628E0,3.001789777E0,7.689299056E0
1.049925375E1,-4.082761319E0,6.482270635E0,3.027718378E0,8.237466306E0
1.050917275E1,-3.591623856E0,6.956831827E0,2.133651915E0,8.114785362E0
1.051909275E1,-2.073938687E0,7.019080115E0,1.686604504E-1,7.321007696E0
1.052901275E1,2.234105618E-1,5.962851359E0,-5.495702097E0,8.112228433E0
1.053893175E1,1.938162100E0,3.961614904E0,-6.889831506E0,8.180503845E0
1.054885175E1,1.545604746E0,2.909031302E0,-2.711041072E0,4.266274820E0
1.055877075E1,9.958110850E-1,2.472611498E0,6.891431889E-1,2.753246388E0
1.056869075E1,9.287476145E-1,1.520529254E0,9.858002132E-1,2.036267027E0
1.057861075E1,9.625301953E-1,1.075973049E0,4.752346449E-1,1.519878399E0
1.058852975E1,1.088592218E0,1.003759351E0,7.544703287E-1,1.661863812E0
1.059844975E1,1.280858316E0,1.006156710E0,1.362516437E0,2.123534882E0
1.060836975E1,1.786227318E0,1.080235670E0,1.833906538E0,2.778620219E0
1.061828875E1,2.404982163E0,1.832963528E0,1.610896218E0,3.426175875E0
1.062820875E1,2.634513006E0,3.052892103E0,1.856644167E0,4.439362176E0
1.063812875E1,2.819754844E0,4.430106686E0,3.509426914E0,6.316085805E0
1.064804775E1,2.974184195E0,5.210947958E0,4.615594400E0,7.569905013E0
1.065796775E1,2.967347338E0,3.985711280E0,3.896147139E0,6.314349306E0
1.066788675E1,3.194813090E0,1.694501461E0,2.648484051E0,4.482480747E0
1.067780675E1,4.404719538E0,-4.066299945E-1,1.818843087E0,4.782791270E0
1.068772675E1,5.047109560E0,-1.809336684E0,1.990626097E0,5.719231277E0
1.069764575E1,4.308825786E0,-1.118654215E0,3.699290099E0,5.788101083E0
1.070756575E1,1.517662072E0,2.248022284E0,7.058508475E0,7.561709082E0
1.071748575E1,-1.632073663E0,3.598242027E0,9.253273734E0,1.006151504E1
1.072740475E1,-3.688515727E0,1.738094208E0,8.875512028E0,9.767335026E0
1.073732475E1,-5.502851488E0,-6.606692952E-1,6.464345995E0,8.515023638E0
1.074724375E1,-5.981183549E0,-2.690463551E0,4.722559855E0,8.081814298E0
1.075716375E1,-3.633944833E0,-4.355140704E0,4.930040116E0,7.515191358E0
1.076708375E1,1.119197714E0,-5.898688107E0,4.897717878E0,7.748210459E0
1.077700275E1,5.603563346E0,-7.156813034E0,4.066460159E0,9.957710238E0
1.078692275E1,7.059573838E0,-4.960466103E0,4.696897595E0,9.823678219E0
1.079684275E1,7.335595745E0,-2.913081669E0,5.502429904E0,9.621525066E0
1.080676175E1,7.421200737E0,-2.315417876E0,5.135466835E0,9.317102550E0
1.081668175E1,5.553284308E0,-1.354790511E0,2.544902380E0,6.257072163E0
1.082660075E1,1.656915852E0,1.512347245E-1,3.287235204E-1,1.695966165E0
1.083652075E1,-2.217616178E0,1.151665841E0,9.357673430E-1,2.668298379E0
1.084644075E1,-5.534460951E0,4.482031131E-1,2.489174906E0,6.084992667E0
1.085635975E1,-6.878793717E0,-1.514130646E0,2.992037791E0,7.652626004E0
1.086627975E1,-7.086213752E0,-3.313303115E0,2.440571534E0,8.194436667E0
1.087619975E1,-7.611742199E0,-3.670610676E0,1.681027722E0,8.616139289E0
1.088611875E1,-7.505519925E0,-4.520468388E0,1.111621769E0,8.831940146E0
1.089603875E1,-7.853368446E0,-6.066134822E0,1.260740386E0,1.000314220E1
1.090595775E1,-7.524311707E0,-8.311667361E0,1.418589189E0,1.130095024E1
1.091587775E1,-6.719888030E0,-1.130329117E1,4.135416958E-1,1.315645481E1
1.092579775E1,-5.954463528E0,-1.390839999E1,-7.748738953E-1,1.514924604E1
1.093571675E1,-5.200144057E0,-1.488481016E1,-2.596722451E0,1.597942550E1
1.094563675E1,-2.320509924E0,-1.268961455E1,-5.162573358E0,1.389472012E1
1.095555675E1,3.644348199E0,-7.270107515E0,-8.306808910E0,1.162492199E1
1.096547575E1,7.304003239E0,-2.749083057E0,-9.094880848E0,1.198427214E1
1.097539575E1,8.599297746E0,-7.808886337E-1,-8.586275997E0,1.217710328E1
1.098531575E1,8.624475857E0,5.398845309E-1,-8.449175162E0,1.208559556E1
1.099523475E1,6.309187789E0,1.288427537E0,-8.188363032E0,1.041706222E1
1.100515475E1,2.820702970E0,2.583905647E0,-9.574644892E0,1.031051689E1
1.101507375E1,1.501138718E0,3.471798327E0,-9.195680414E0,9.943205688E0
1.102499375E1,8.565475843E-1,3.793202814E0,-7.361097207E0,8.325131437E0
1.103491375E1,-3.433204365E-1,4.786303861E0,-4.918505314E0,6.871554998E0
1.104483275E1,-6.217856035E-3,5.717767653E0,-1.594327255E0,5.935889571E0
1.105475275E1,8.849017563E-1,7.334763687E0,1.627930034E0,7.565181138E0
1.106467175E1,4.210164839E-1,8.876510732E0,3.369138177E0,9.503725044E0
1.107459175E1,-1.927455849E0,9.496219112E0,4.522063800E0,1.069309705E1
1.108451175E1,-3.924284526E0,9.628065054E0,4.351758382E0,1.127108898E1
1.109443075E1,-5.665787076E0,9.988626591E0,3.166810482E0,1.191228328E1
1.110435075E1,-7.740609570E0,1.049523286E1,1.130302746E0,1.308986378E1
1.111427075E1,-9.055807414E0,1.081956388E1,-1.178318327E0,1.415835600E1
1.112418975E1,-9.126273964E0,1.009561076E1,-2.885256523E0,1.391168352E1
1.113410975E1,-6.719388093E0,7.762909681E0,-3.281209502E0,1.077864921E1
1.114402875E1,-4.466988584E0,5.500109144E0,-3.013103555E0,7.699609122E0
1.115394875E1,-3.561204008E0,4.042302972E0,-2.556941212E0,5.963248751E0
1.116386875E1,-2.686639764E0,2.943121739E0,-1.554092857E0,4.277289258E0
1.117378775E1,-1.707082915E0,2.240737238E0,-4.354900968E-1,2.850383671E0
1.118370775E1,-7.904938549E-1,1.613849062E0,7.957645351E-1,1.965357607E0
1.119362775E1,2.052467711E0,-3.338116944E-2,1.316303553E0,2.438522719E0
1.120354675E1,5.172228280E0,-2.104001269E0,9.699586442E-1,5.667414445E0
1.121346675E1,8.055296191E0,-5.201107678E0,-3.696691597E-1,9.595622601E0
1.122338575E1,1.158062344E1,-8.000397853E0,-1.924642315E0,1.420638776E1
1.123330575E1,1.470100294E1,-9.966517099E0,-1.441202418E0,1.781931578E1
1.124322575E1,1.282393211E1,-9.287403932E0,5.157098025E-1,1.584219249E1
1.125314475E1,6.033974551E0,-7.626866607E0,2.533282793E0,1.004964999E1
1.126306475E1,1.399988611E0,-6.366634344E0,5.252297713E0,8.371417577E0
1.127298475E1,2.917976958E-1,-4.350202146E0,8.289140963E0,9.365856208E0
1.128290375E1,-5.418512419E-1,-1.857622406E0,9.565681111E0,9.759437426E0
1.129282375E1,-1.836997522E0,5.639756441E-2,7.422374858E0,7.646527912E0
1.130274275E1,-2.882551894E0,8.184868151E-1,3.412546444E0,4.541420408E0
1.131266275E1,-3.868848536E0,-3.107415050E-1,-1.238420979E0,4.074093248E0
1.132258396E1,-1.913997459E0,-3.172766456E0,-3.425755012E0,5.046348250E0
1.133250296E1,1.231575059E0,-8.087435997E0,-1.703656447E0,8.356185937E0
1.134242296E1,2.848021162E0,-1.186480514E1,7.110184997E-2,1.220204413E1
1.135234296E1,3.749172988E0,-1.385051723E1,3.465141857E-1,1.435315985E1
1.136226196E1,3.478170623E0,-1.238893785E1,8.493370172E-1,1.289592282E1
1.137218196E1,1.267783358E0,-7.536256984E0,2.816814280E-1,7.647338648E0
1.138210096E1,-3.879259796E0,-1.402842345E0,-2.477975442E0,4.812170560E0
1.139202096E1,-8.130279715E0,2.205202539E0,-3.947033410E0,9.302872633E0
1.140194096E1,-9.907682415E0,2.760984480E0,-2.963472096E0,1.070361495E1
1.141185996E1,-1.041685912E1,2.062949138E0,-2.548468012E0,1.092068690E1
1.142177996E1,-9.754751998E0,7.901821983E-1,-2.538124579E0,1.011047233E1
1.143169996E1,-7.285227245E0,-1.574495546E0,-1.915942535E0,7.695739603E0
1.144161896E1,-5.381654495E0,-4.123251826E0,-1.133525147E0,6.873739156E0
1.145153896E1,-4.750924406E0,-7.345381646E0,-9.870181882E-1,8.803415197E0
1.146145796E1,-3.910711091E0,-1.011001830E1,-1.049344537E0,1.089069581E1
1.147137796E1,-2.765665761E0,-1.020976595E1,-4.277004361E-2,1.057780965E1
1.148129796E1,-1.424461840E0,-8.258371160E0,3.022636271E-1,8.385770629E0
1.149121696E1,-5.292224255E-1,-5.063106957E0,-2.576859167E-1,5.097208105E0
1.150113696E1,-5.677026594E-1,-1.646500499E0,-7.949041173E-1,1.914451033E0
1.151105696E1,-7.198635828E-1,4.711394012E-1,-1.034768305E0,1.345704782E0
1.152097596E1,-3.296095929E-1,2.308487756E0,-3.080357060E-1,2.352157350E0
1.153089596E1,4.227303028E-2,3.901046521E0,1.194347299E0,4.080002015E0
1.154081496E1,-3.766771938E-1,4.701983503E0,2.407756521E0,5.296019830E0
1.155073496E1,-1.486775617E0,5.507753209E0,3.800862667E0,6.855100594E0
1.156065496E1,-2.978892373E0,6.160473214E0,4.804844213E0,8.361325128E0
1.157057396E1,-3.570325665E0,6.559423476E0,3.452983156E0,8.227779431E0
1.158049396E1,-2.563221121E0,7.173504496E0,-2.138793957E0,7.912250556E0
1.159041396E1,8.665541437E-1,6.242678635E0,-1.009420626E1,1.190020809E1
1.160033296E1,2.634802151E0,4.699048786E0,-8.578144859E0,1.012955138E1
1.161025296E1,5.834244335E-1,4.567909772E0,-2.469443184E0,5.225354858E0
1.162017196E1,-4.164561673E-1,4.233290577E0,5.376330605E-1,4.287567394E0
1.163009196E1,2.994344518E-2,3.945408177E0,9.298353428E-1,4.053607783E0
1.164001196E1,9.211329317E-1,3.549465723E0,-8.563539684E-2,3.668041196E0
1.164993096E1,1.671136865E0,3.159289793E0,6.487938926E-2,3.574635611E0
1.165985096E1,2.146233661E0,2.395053445E0,4.709745097E-1,3.250294898E0
1.166976996E1,2.359420951E0,1.550600315E0,7.168744862E-1,2.912925950E0
1.167968996E1,2.472172957E0,1.417847469E0,7.354908514E-1,2.943276638E0
1.168960996E1,2.602053942E0,1.517008061E0,5.815990059E-1,3.067613988E0
1.169952896E1,2.567121214E0,1.739168342E0,7.865369710E-1,3.198977689E0
1.170944896E1,2.543010221E0,2.444361845E0,1.531986727E0,3.845619475E0
1.171936896E1,2.934487156E0,3.823374447E0,2.169018799E0,5.285267219E0
1.172928796E1,3.099362265E0,4.349089420E0,2.117479101E0,5.744940642E0
1.173920796E1,2.158867594E0,1.867211255E0,1.555942331E0,3.250868145E0
1.174912696E1,1.574089165E0,-1.279754362E0,1.400963634E0,2.465406058E0
1.175904696E1,2.043855347E0,-2.011179644E0,2.308037521E0,3.680927253E0
1.176896696E1,4.744707354E0,2.561271660E0,3.924907254E0,6.669127180E0
1.177888596E1,5.870191702E0,6.085170432E0,5.571438743E0,1.012567921E1
1.178880596E1,8.836145648E-1,-4.517798549E-1,7.326041980E0,7.392954134E0
1.179872596E1,-2.681136657E0,-1.475697482E0,8.578379917E0,9.107951407E0
1.180864496E1,-3.751705710E0,9.553292030E-1,7.019673607E0,8.016468498E0
1.181856496E1,-4.755022427E0,-1.624631327E-1,4.798274281E0,6.757223441E0
1.182848396E1,-5.073593938E0,-2.133467143E0,3.651707797E0,6.605150062E0
1.183840396E1,-4.617286292E0,-2.275039344E0,3.656675591E0,6.313985516E0
1.184832396E1,-2.882298125E0,-2.473988518E0,5.135443447E0,6.387569261E0
1.185824296E1,-7.713108945E-1,-4.537772053E0,6.530265166E0,7.989409167E0
1.186816296E1,2.415309077E0,-6.285593689E0,5.367616500E0,8.611255010E0
1.187808296E1,3.823325038E0,-4.727424154E0,4.425823016E0,7.520256834E0
1.188800196E1,4.791524840E0,-2.979539368E0,5.632477827E0,7.972526049E0
1.189792196E1,4.958298540E0,-1.785849588E0,7.037795298E0,8.792300371E0
1.190784096E1,3.995234056E0,-1.319701370E0,6.199151961E0,7.492195399E0
1.191776096E1,4.147156705E0,-1.144189006E-1,5.086405188E0,6.563803635E0
1.192768096E1,2.738937553E0,1.653762740E0,3.522213020E0,4.758434058E0
1.193759996E1,6.694313478E-1,1.890114214E0,2.114271173E0,2.913899906E0
1.194751996E1,-2.043603332E0,9.155599505E-1,1.550207820E0,2.723547115E0
1.195743896E1,-4.361613279E0,-2.868439347E-1,1.985105740E0,4.800686893E0
1.196735896E1,-6.200683932E0,-7.194934541E-1,1.972255899E0,6.546445248E0
1.197727896E1,-7.665003317E0,-7.649058545E-1,1.071831759E0,7.777286168E0
1.198719796E1,-8.315469806E0,-2.810438476E0,7.394533633E-1,8.808654482E0
1.199711796E1,-8.536451873E0,-8.950202606E0,5.357467487E-1,1.237999038E1
1.200703796E1,-8.364803349E0,-1.494285196E1,-7.992909908E-1,1.714344265E1
1.201695696E1,-6.651974959E0,-1.728078396E1,-5.707508129E-1,1.852565846E1
1.202687696E1,-5.657501571E0,-1.712036443E1,-9.170679474E-1,1.805422986E1
1.203679596E1,-4.791458766E0,-1.527735713E1,-2.629683498E0,1.622562644E1
1.204671596E1,6.704867703E-1,-1.037087896E1,-6.688012519E0,1.235856765E1
1.205663596E1,6.528067197E0,-5.986713261E0,-1.035843842E1,1.362914684E1
1.206655496E1,1.027262352E1,-3.583170828E0,-1.082477141E1,1.534736405E1
1.207647496E1,9.810995196E0,-9.867685121E-1,-1.065531326E1,1.451774912E1
1.208639496E1,6.091168506E0,1.629845290E0,-1.062058430E1,1.235133759E1
1.209631396E1,5.200809470E0,3.290061017E0,-9.184655489E0,1.105580468E1
1.210623396E1,4.629386228E0,3.790668046E0,-7.182018626E0,9.347821812E0
1.211615296E1,2.118565368E0,4.530557758E0,-4.417911149E0,6.673245967E0
1.212607296E1,5.225151575E-1,5.694395163E0,-2.704125862E0,6.325460856E0
1.213599296E1,2.475370507E-1,6.565253150E0,-4.551712400E-1,6.585666585E0
1.214591196E1,-3.846799855E-1,7.921868577E0,2.274350249E0,8.250857501E0
1.215583196E1,-2.803529406E0,9.423372161E0,4.143561544E0,1.066905911E1
1.216575096E1,-5.477042463E0,1.013020756E1,4.579324706E0,1.239311560E1
1.217567096E1,-6.984865717E0,1.008963724E1,3.471233194E0,1.275298352E1
1.218559096E1,-8.324585615E0,9.822038248E0,2.045004910E0,1.303661022E1
1.219550996E1,-9.102348912E0,9.292416165E0,4.955062106E-1,1.301719172E1
1.220542996E1,-8.801710226E0,8.456133934E0,-1.552052763E0,1.230386816E1
1.221534996E1,-7.515318689E0,6.594630731E0,-3.307657043E0,1.053137050E1
1.222526896E1,-5.622364483E0,4.338474970E0,-5.058158458E0,8.718848229E0
1.223518896E1,-4.399231634E0,2.859656829E0,-5.971482434E0,7.949181002E0
1.224510796E1,-4.216465214E0,2.079150018E0,-3.814308339E0,6.053956707E0
1.225502796E1,-3.912547410E0,1.580500052E0,-1.236064259E0,4.397028826E0
1.226494796E1,-2.724303142E0,1.023569133E0,-3.573560929E-1,2.932102446E0
1.227486696E1,-5.388196068E-1,1.359150195E-1,-2.681293362E-1,6.170030811E-1
1.228478696E1,1.580581474E0,4.360268712E-2,1.086324960E-1,1.584910096E0
1.229470596E1,4.002848884E0,-5.391647387E-1,1.056156251E-1,4.040377763E0
1.230462596E1,7.264121720E0,-3.099727131E0,-1.651147573E0,8.068584818E0
1.231454596E1,1.160077762E1,-4.768706081E0,-1.164836402E0,1.259664411E1
1.232446396E1,1.425076031E1,-6.062290862E0,1.758879598E0,1.558618611E1
1.233438396E1,1.363130044E1,-5.860031580E0,4.644672604E0,1.554751766E1
1.234430396E1,8.524206634E0,-4.731739984E0,6.346912855E0,1.163334710E1
1.235422296E1,2.076159313E0,-4.531671653E0,6.567592621E0,8.244983826E0
1.236414296E1,-9.552455878E-1,-4.070002987E0,6.930163261E0,8.093490055E0
1.237406196E1,-1.903543514E-1,-2.631021341E0,7.087959146E0,7.562914315E0
1.238398196E1,-1.905316682E-1,-6.757551116E-1,5.973308519E0,6.014429479E0
1.239390196E1,-2.184067486E0,-9.947049379E-2,2.870478271E0,3.608280846E0
1.240382096E1,-4.501936222E0,-1.931420699E0,-1.465542038E0,5.113279685E0
1.241374096E1,-4.155681361E0,-4.063062927E0,-3.752547416E0,6.918076324E0
1.242365996E1,-2.255124166E0,-7.527559835E0,-8.630490303E-1,7.905352345E0
1.243357996E1,3.872189927E-1,-9.065233710E0,1.298882359E0,9.165996735E0
1.244349996E1,1.917423050E0,-8.725818629E0,9.951350006E-1,8.989255563E0
1.245341896E1,1.658608620E0,-9.819645567E0,1.672546336E-1,9.960140347E0
1.246333896E1,1.242765753E0,-1.050229864E1,4.734625000E-1,1.058616598E1
1.247325896E1,-1.955347213E0,-7.374035341E0,-4.188439509E-1,7.640367150E0
1.248317796E1,-5.352171664E0,-3.174698961E0,-2.957596229E0,6.889980440E0
1.249309796E1,-6.941138484E0,-3.199573016E-1,-3.914592181E0,7.975324951E0
1.250301696E1,-7.074671933E0,1.460498815E0,-2.758495905E0,7.732615302E0
1.251293696E1,-6.806691701E0,2.463885114E0,-2.365466534E0,7.615590173E0
1.252285696E1,-6.529751780E0,1.752315221E0,-3.092683868E0,7.434578700E0
1.253277596E1,-4.847692609E0,-1.117535643E0,-2.750712091E0,5.684665914E0
1.254269596E1,-3.328039852E0,-3.939898345E0,-1.670864969E0,5.421294862E0
1.255261496E1,-2.642427505E0,-6.867906786E0,-9.719914287E-1,7.422623127E0
1.256253496E1,-1.468418283E0,-8.671199788E0,-1.969874328E-1,8.796860921E0
1.257245496E1,-1.745452344E-1,-7.640521025E0,8.663392586E-1,7.691460933E0
1.258237396E1,8.508377051E-1,-5.528299740E0,1.169545164E0,5.714355494E0
1.259229396E1,1.039500603E0,-2.267464276E0,2.847816217E-1,2.510588839E0
1.260221296E1,1.182088611E0,1.216555316E0,-5.376640508E-1,1.779444564E0
1.261213296E1,1.217175267E0,3.663491106E0,-1.276482260E-1,3.862509131E0
1.262205296E1,1.132811055E0,4.830133420E0,9.103211376E-1,5.044019659E0
1.263197196E1,-3.797367859E-1,5.857742395E0,1.666493006E0,6.102011548E0
1.264189196E1,-3.115621033E0,6.487233751E0,1.973640520E0,7.462342331E0
1.265181196E1,-4.594994659E0,6.112112648E0,7.406913650E-1,7.682481412E0
1.266173096E1,-3.593420997E0,6.289285036E0,-2.734626109E0,7.742477684E0
1.267165096E1,-1.460210108E0,6.254744949E0,-8.079217150E0,1.032123044E1
1.268156996E1,-3.236777388E-1,5.454717209E0,-7.295397892E0,9.114907433E0
1.269148996E1,-3.065496361E-1,5.070924100E0,-2.333612072E0,5.590526738E0
1.270140996E1,-1.793744498E-1,4.943037307E0,1.142999682E0,5.076636809E0
1.271132896E1,1.316817816E-1,4.645410522E0,1.739667109E0,4.962219328E0
1.272124896E1,4.711398397E-1,3.819730462E0,2.612132496E-1,3.857531065E0
1.273116796E1,6.411026844E-1,3.298962234E0,-5.950192429E-1,3.412947754E0
1.274108796E1,9.319955966E-1,2.673328870E0,-5.389086306E-2,2.831643915E0
1.275100796E1,1.248495732E0,1.937971335E0,4.578492647E-1,2.350340494E0
1.276092696E1,1.755296571E0,8.918787271E-1,4.660954468E-1,2.023303902E0
1.277084696E1,2.016023770E0,8.061135221E-1,6.772923446E-1,2.274400091E0
1.278076696E1,2.278316123E0,1.420371712E0,8.177021188E-1,2.806566749E0
1.279068596E1,2.829496890E0,2.896912363E0,1.704001433E0,4.393378515E0
1.280060596E1,3.088817981E0,5.123087695E0,2.595122945E0,6.520850186E0
1.281052496E1,1.827107542E0,3.409699727E0,2.561090396E0,4.639348900E0
1.282044496E1,7.755735147E-1,-5.715910578E-1,2.011556790E0,2.230379190E0
1.283036496E1,2.651484549E0,-7.439880252E-1,1.922360439E0,3.358475570E0
1.284028396E1,6.920557455E0,4.290748826E0,2.790319961E0,8.607585402E0
1.285020396E1,6.142746795E0,2.678307774E0,3.831625453E0,7.719327972E0
1.286012296E1,-2.143890390E-1,-4.544263632E0,6.377504318E0,7.833827668E0
1.287004296E1,-1.726357969E0,-4.057289386E-1,8.125232399E0,8.316509444E0
1.287996296E1,-2.413473344E0,2.959675791E0,8.539210589E0,9.354285213E0
1.288988196E1,-4.453272185E0,1.961330377E0,7.668456098E0,9.082052022E0
1.289980196E1,-5.663118407E0,-1.081276474E0,4.948814356E0,7.598080839E0
1.290972196E1,-6.183646899E0,-1.318799145E0,3.585884521E0,7.268788617E0
1.291964096E1,-5.304084163E0,-1.866007898E0,4.368072406E0,7.120066771E0
1.292956096E1,-3.106843777E0,-3.645493376E0,5.146962461E0,7.030883500E0
1.293947996E1,-1.601789179E-1,-5.024042294E0,4.798454375E0,6.949231803E0
1.294939996E1,2.051334229E0,-5.211602261E0,3.739060521E0,6.734192143E0
1.295931996E1,3.131433366E0,-3.581937650E0,3.999737581E0,6.215629733E0
1.296923896E1,4.467536760E0,-1.596327880E0,5.142016886E0,6.996247928E0
1.297915896E1,5.733186176E0,3.697673929E-1,5.861334339E0,8.207398607E0
1.298907796E1,5.781024002E0,1.453598515E0,5.585597191E0,8.168970751E0
1.299899796E1,4.493345201E0,7.073370928E-1,4.075690573E0,6.107514266E0
1.300891796E1,2.809730963E0,-7.674529016E-2,4.461430805E0,5.273029751E0
1.301883696E1,-9.109043974E-1,-1.803982973E-1,3.770232612E0,3.882904109E0
1.302875696E1,-4.862298076E0,-9.939044541E-1,2.605590631E0,5.605255675E0
1.303867596E1,-7.072268727E0,-2.270218899E0,9.460337381E-1,7.487713846E0
1.304859596E1,-7.044168763E0,-3.718545565E0,9.597075981E-1,8.023025200E0
1.305851596E1,-6.943455736E0,-4.959605393E0,3.775247477E-1,8.541181894E0
1.306843496E1,-6.708321068E0,-7.591188651E0,-2.665008867E-1,1.013403865E1
1.307835496E1,-5.032880360E0,-1.088865926E1,-1.798169379E0,1.212955887E1
1.308827496E1,-3.280389430E0,-1.255095250E1,-1.423006468E0,1.305037589E1
1.309819396E1,-2.636794882E0,-1.390729136E1,-5.146497023E-1,1.416440272E1
1.310811396E1,-2.489698817E0,-1.499465829E1,-4.788822842E-1,1.520748847E1
1.311803296E1,-1.471479886E0,-1.487888459E1,-2.168582597E0,1.510791879E1
1.312795296E1,2.389762300E0,-1.116442097E1,-6.181838940E0,1.298346610E1
1.313787296E1,5.625186349E0,-5.621781515E0,-8.421340077E0,1.158300987E1
1.314779196E1,7.573568652E0,-2.817249897E0,-8.906022799E0,1.202551792E1
1.315771196E1,6.413457677E0,-9.256516600E-1,-9.402294703E0,1.141894987E1
1.316763096E1,3.766635990E0,1.580359719E0,-9.444691694E0,1.029015475E1
1.317755096E1,2.610387686E0,3.408580570E0,-8.735553074E0,9.733572463E0
1.318747096E1,2.012371746E0,4.348051540E0,-7.923031003E0,9.259028703E0
1.319738996E1,1.285980916E0,5.269010224E0,-5.046614301E0,7.408409516E0
1.320730996E1,1.311554444E0,6.586284415E0,-1.574040633E0,6.897602581E0
1.321722896E1,4.123950568E-1,7.454480749E0,6.141313058E-1,7.491095393E0
1.322714896E1,-8.209929317E-1,7.998445467E0,1.945338242E0,8.272454301E0
1.323706896E1,-2.239598493E0,8.477090355E0,2.907134758E0,9.237331584E0
1.324698796E1,-4.297954642E0,8.752569056E0,2.799242519E0,1.014473449E1
1.325690796E1,-6.078862456E0,8.923928143E0,1.719455039E0,1.093369050E1
1.326682796E1,-7.604791614E0,8.920243812E0,7.407220629E-1,1.174530861E1
1.327674696E1,-8.835125894E0,8.683934439E0,-6.977622771E-1,1.240794258E1
1.328666696E1,-9.631890303E0,8.458579824E0,-2.462969440E0,1.305324105E1
1.329658596E1,-9.153544793E0,7.480768077E0,-3.684985471E0,1.238258419E1
1.330650596E1,-7.306660214E0,5.839376290E0,-4.422838013E0,1.034635661E1
1.331642596E1,-5.931148925E0,4.575477823E0,-3.393928910E0,8.223884625E0
1.332634533E1,-5.275811121E0,3.598311024E0,-8.459397849E-1,6.441866137E0
1.333626533E1,-4.364657924E0,2.735521025E0,-1.884148300E-2,5.151084262E0
1.334618433E1,-2.881965418E0,1.995221424E0,-5.059665871E-1,3.541558328E0
1.335610433E1,-8.342330745E-1,1.432813418E0,-4.799587566E-1,1.726053163E0
1.336602433E1,1.338787851E0,6.989399064E-1,-6.648886460E-1,1.650135393E0
1.337594333E1,4.027356319E0,-6.039173895E-1,-1.604972988E0,4.377242674E0
1.338586333E1,8.152241857E0,-2.697516462E0,-2.445014102E0,8.928254943E0
1.339578233E1,1.221123863E1,-4.735840636E0,6.137155688E-1,1.311179554E1
1.340570233E1,1.453320890E1,-7.183164681E0,2.960426866E0,1.647956744E1
1.341562233E1,1.268618691E1,-8.689102793E0,3.734646458E0,1.582363516E1
1.342554133E1,6.488568671E0,-8.701754998E0,4.568547118E0,1.177682836E1
1.343546133E1,4.198821241E-1,-7.965584115E0,5.022530204E0,9.426167882E0
1.344538133E1,-8.149381399E-1,-6.024146551E0,6.246410912E0,8.716198433E0
1.345530033E1,4.056941476E-1,-3.628858048E0,7.488853022E0,8.331633577E0
1.346522033E1,3.296943775E-1,-4.560167474E-1,5.945438935E0,5.972009192E0
1.347513933E1,-1.268588519E0,1.666385710E0,1.479380643E0,2.564122706E0
1.348505933E1,-3.774073064E0,2.124498099E-1,-2.836018290E0,4.725649390E0
1.349497933E1,-2.620620606E0,-4.727662720E0,-1.339451803E0,5.568893812E0
1.350489833E1,-2.631805453E-1,-8.496266883E0,1.555602315E0,8.641511066E0
1.351481833E1,1.720686755E0,-9.371329018E0,1.135609971E0,9.595424976E0
1.352473733E1,3.549143249E0,-9.854167528E0,9.173959762E-1,1.051392652E1
1.353465733E1,5.329486806E0,-9.666224568E0,2.397316902E0,1.129541745E1
1.354457733E1,4.263373624E0,-7.069718757E0,2.722896302E0,8.693183665E0
1.355449633E1,-1.426834348E0,-3.259763669E0,-9.162209782E-1,3.674421902E0
1.356441633E1,-5.803754468E0,-6.903515160E-1,-3.877555040E0,7.013956389E0
1.357433533E1,-7.389898837E0,4.496023518E-1,-4.078839299E0,8.452791085E0
1.358425533E1,-8.067558387E0,1.499495650E0,-2.606392576E0,8.609719379E0
1.359417533E1,-8.542432405E0,2.150298353E0,-2.160754052E0,9.070049199E0
1.360409433E1,-7.514863776E0,9.645122552E-1,-2.455694042E0,7.964539829E0
1.361401433E1,-4.790900065E0,-1.104460099E0,-1.892832292E0,5.268336514E0
1.362393433E1,-3.173694701E0,-2.746215582E0,-1.368582046E0,4.414414446E0
1.363385333E1,-2.658383971E0,-4.755356303E0,-7.752723831E-1,5.502859818E0
1.364377333E1,-1.578846167E0,-7.324280214E0,-2.171305060E-2,7.492550122E0
1.365369233E1,-2.837981200E-1,-7.882495766E0,6.862219200E-1,7.917397388E0
1.366361233E1,1.367191578E-1,-6.328333327E0,8.367850918E-1,6.384880901E0
1.367353233E1,2.495075624E-1,-4.058890938E0,-3.328121129E-1,4.080148720E0
1.368345133E1,3.031301844E-1,-1.143492018E0,-1.830111256E0,2.179167069E0
1.369337133E1,-1.839291385E-1,1.124653459E0,-9.007191324E-1,1.452573676E0
1.370329033E1,-1.187697407E0,3.480072722E0,1.260412942E0,3.887180477E0
1.371321033E1,-1.781451458E0,4.244366958E0,2.552519840E0,5.263418823E0
1.372313033E1,-2.355073839E0,4.339122841E0,2.621428984E0,5.589834500E0
1.373304933E1,-3.764081342E0,5.216860662E0,1.208254609E0,6.545519285E0
1.374296933E1,-4.856128972E0,6.339094543E0,-1.835917541E0,8.193698886E0
1.375288833E1,-5.324291555E0,4.851744145E0,-8.618083681E0,1.123204648E1
1.376280833E1,-2.329723236E0,2.750802723E0,-7.473859591E0,8.297777002E0
1.377272833E1,-4.899342526E-1,3.464383473E0,-1.618513386E0,3.855071205E0
1.378264733E1,-6.009038259E-2,4.721581031E0,1.118254120E0,4.852569481E0
1.379256733E1,7.048963188E-1,5.410830347E0,1.401024445E0,5.633545363E0
1.380248633E1,1.081032207E0,5.476557729E0,9.251318425E-2,5.582998646E0
1.381240633E1,1.635353659E0,4.670747677E0,-1.123221768E0,5.074632262E0
1.382232633E1,1.309569607E0,3.882875714E0,-4.471637705E-1,4.122093134E0
1.383224533E1,8.949812597E-1,3.220936988E0,7.531213760E-2,3.343814955E0
1.384216533E1,1.055970236E0,2.628012364E0,3.405969496E-1,2.852635344E0
1.385208533E1,1.388316107E0,2.110611547E0,7.719866864E-1,2.641602952E0
1.386200433E1,1.998195171E0,1.882012897E0,8.493351169E-1,2.873347634E0
1.387192433E1,2.554758154E0,2.782877625E0,6.180851199E-1,3.827953280E0
1.388184333E1,2.845353370E0,4.250049866E0,1.335377170E0,5.286037443E0
1.389176333E1,2.313435524E0,5.114411012E0,2.621873957E0,6.195434365E0
1.390168333E1,1.461525293E0,3.344484562E0,3.007256924E0,4.729188870E0
1.391160233E1,2.921211637E0,1.012788037E0,2.011800034E0,3.688706605E0
1.392152233E1,6.618286811E0,3.962041751E0,6.995000696E-1,7.745243411E0
1.393144133E1,5.567056255E0,2.973738345E0,1.775452069E0,6.556482680E0
1.394136133E1,1.682032274E0,-1.656689272E0,4.484026201E0,5.067577615E0
1.395128133E1,7.287624604E-1,-2.121316044E0,5.812048159E0,6.229845928E0
1.396120033E1,2.102571040E-1,-1.421618924E0,6.490823357E0,6.648006939E0
1.397112033E1,-2.653923423E0,-1.029102938E0,7.944346443E0,8.438898199E0
1.398103933E1,-4.995942914E0,-2.035965407E-1,7.764239337E0,9.234950441E0
1.399095933E1,-6.184837977E0,-1.782821315E0,5.571280868E0,8.512922128E0
1.400087933E1,-6.416341524E0,-2.598658172E0,3.453205351E0,7.736090100E0
1.401079833E1,-5.637890010E0,-3.252345307E0,2.946075168E0,7.144432283E0
1.402071833E1,-3.638793052E0,-5.313410472E0,3.859918960E0,7.508136926E0
1.403063733E1,-1.718408972E-1,-7.321450746E0,4.114258808E0,8.400017611E0
1.404055733E1,2.201587206E0,-6.773630374E0,4.244374559E0,8.291186288E0
1.405047733E1,3.557725792E0,-4.201343145E0,5.419932708E0,7.725565843E0
1.406039633E1,4.851346242E0,-1.465147351E0,6.510088763E0,8.250058959E0
1.407031633E1,4.440223247E0,5.228165084E-1,6.120299335E0,7.579378835E0
1.408023633E1,3.373831737E0,1.178914450E0,4.315710590E0,5.603386277E0
1.409015533E1,2.897037786E0,1.757304651E0,2.733804867E0,4.353692297E0
1.410007533E1,9.298388511E-1,2.361668767E0,2.584882132E0,3.622664115E0
1.410999433E1,-1.816652720E0,1.970387714E0,2.572123507E0,3.714629751E0
1.411991433E1,-3.902027684E0,3.717063296E-1,2.821994913E0,4.829869660E0
1.412983433E1,-5.282364680E0,-5.771359724E-1,3.152495914E0,6.178567231E0
1.413975333E1,-6.225513548E0,-9.236261845E-1,2.504413919E0,6.773639594E0
1.414967333E1,-6.518991734E0,-1.709735797E0,1.193375199E0,6.844311075E0
1.415959233E1,-6.292909725E0,-4.139319974E0,1.287602203E-1,7.533343338E0
1.416951233E1,-6.581161669E0,-8.439761145E0,-1.000505376E0,1.074905894E1
1.417943233E1,-5.937013682E0,-1.282121081E1,-9.994756812E-1,1.416441067E1
1.418935133E1,-5.257723929E0,-1.507103462E1,-5.868274400E-1,1.597260505E1
1.419927133E1,-4.656651794E0,-1.630275060E1,-8.867773238E-1,1.697794031E1
1.420919033E1,-3.053126577E0,-1.513723680E1,-2.708948354E0,1.567787999E1
1.421911033E1,1.774482893E0,-9.778893397E0,-5.851475934E0,1.153322662E1
1.422903033E1,7.146303248E0,-4.834046377E0,-8.126315303E0,1.185220042E1
1.423894933E1,9.168996645E0,-2.819582351E0,-9.301117991E0,1.336156203E1
1.424886933E1,7.207955121E0,-6.424891323E-1,-1.031316694E1,1.259876270E1
1.425878933E1,5.364291773E0,1.975259614E0,-1.052245984E1,1.197495043E1
1.426870833E1,4.320809362E0,3.762088026E0,-9.140514858E0,1.078757210E1
1.427862833E1,3.405250873E0,4.283112363E0,-6.812016760E0,8.737525815E0
1.428854733E1,2.152329091E0,4.774650945E0,-4.626607631E0,6.988226551E0
1.429846733E1,1.114429748E0,6.023152524E0,-2.705537673E0,6.696286590E0
1.430838733E1,2.984190828E-1,6.413242500E0,-4.426839262E-1,6.435425578E0
1.431830633E1,-5.990068978E-1,6.880330950E0,1.569278660E0,7.082400635E0
1.432822633E1,-2.320982671E0,7.675976787E0,3.110890343E0,8.601466091E0
1.433814533E1,-4.677823393E0,8.016936702E0,3.772626755E0,1.001928233E1
1.434806533E1,-6.432616664E0,8.094353253E0,3.391961906E0,1.088129208E1
1.435798533E1,-8.121268571E0,8.323766420E0,2.325693188E0,1.185955056E1
1.436790433E1,-9.494349757E0,8.562596528E0,2.025925738E-1,1.278678147E1
1.437782433E1,-9.838744912E0,8.449147096E0,-2.322671347E0,1.317512012E1
1.438774333E1,-8.600337381E0,7.273797693E0,-4.145311324E0,1.200239734E1
1.439766333E1,-6.303853959E0,5.221152518E0,-5.295102839E0,9.748698500E0
1.440758333E1,-4.215028261E0,3.848571854E0,-5.400560297E0,7.857736320E0
1.441750233E1,-3.678001556E0,3.089687462E0,-3.209863531E0,5.777290710E0
1.442742233E1,-3.336363656E0,2.579780436E0,-4.358260193E-1,4.239874275E0
1.443734133E1,-2.200271582E0,2.190333070E0,6.501881611E-1,3.171986544E0
1.444726133E1,-7.618854752E-1,1.648202038E0,5.890654618E-1,1.908936236E0
1.445718133E1,1.148642830E0,1.158594207E0,5.712226832E-1,1.728587933E0
1.446710033E1,3.700784647E0,8.893147230E-2,-7.273831022E-1,3.772638598E0
1.447702033E1,6.832771452E0,-1.661058896E0,-3.367071186E0,7.796348552E0
1.448693933E1,9.981773654E0,-3.818811280E0,-1.297789514E0,1.076584333E1
1.449685933E1,1.145661569E1,-5.266680694E0,3.261682141E0,1.302422892E1
1.450677933E1,1.078282232E1,-6.633039336E0,5.470699988E0,1.379112129E1
1.451669833E1,6.927381155E0,-6.669606653E0,6.953514701E0,1.186691322E1
1.452661833E1,2.551316775E0,-6.002260423E0,7.066356608E0,9.616118925E0
1.453653733E1,1.430245906E0,-5.048697664E0,6.617471709E0,8.445465249E0
1.454645733E1,2.625948882E0,-3.378410107E0,6.539803144E0,7.815259915E0
1.455637733E1,1.989142073E0,-6.047605580E-1,5.107338220E0,5.514283744E0
1.456629633E1,-1.962384045E-2,1.298313425E0,2.228255771E0,2.578977826E0
1.457621633E1,-2.967523339E0,7.214154339E-1,-1.240559891E0,3.296304573E0
1.458613533E1,-3.953051072E0,-2.789497257E0,-1.797232947E0,5.161196954E0
1.459605533E1,-2.222631335E0,-7.148836847E0,1.077591559E0,7.563541623E0
1.460597533E1,2.386669707E-1,-8.488359109E0,2.334250588E0,8.806697911E0
1.461589433E1,1.960507966E0,-9.963392347E0,7.844794089E-1,1.018470355E1
1.462581433E1,2.944437655E0,-1.162100899E1,-1.210835570E-1,1.198883748E1
1.463573433E1,3.416258257E0,-1.073037513E1,1.156416119E0,1.132029457E1
1.464565333E1,-4.910380608E-1,-6.505811525E0,-1.064479178E0,6.610583779E0
1.465557333E1,-5.896155093E0,-1.804530272E0,-4.377303990E0,7.561862509E0
1.466549233E1,-8.487712991E0,7.855728382E-1,-4.454174411E0,9.617591496E0
1.467541233E1,-9.021575475E0,2.029122410E0,-3.413822014E0,9.856994600E0
1.468533233E1,-9.273932531E0,2.540927442E0,-3.305647063E0,1.016805976E1
1.469525133E1,-7.769338109E0,1.128386321E0,-3.480942788E0,8.587946963E0
1.470517133E1,-4.794865939E0,-1.627401738E0,-2.402401056E0,5.604525549E0
1.471509033E1,-3.501613572E0,-4.582157682E0,-1.453468415E0,5.947271397E0
1.472501033E1,-2.707046547E0,-8.711566041E0,-1.022608728E0,9.179608516E0
1.473493033E1,-5.825915708E-1,-1.134486838E1,3.638766155E-1,1.136564374E1
1.474484933E1,1.098098183E0,-9.993285652E0,2.209533279E0,1.029337724E1
1.475476933E1,1.989336201E0,-6.280997193E0,1.627981782E0,6.786656683E0
1.476468833E1,1.862072722E0,-1.939538974E0,-7.354969910E-1,2.787486695E0
1.477460833E1,1.576037749E0,1.901837296E0,-1.986099767E0,3.169459319E0
1.478452833E1,1.278511244E0,3.422356610E0,-9.460449940E-1,3.773872931E0
1.479444733E1,5.568771243E-2,4.624031932E0,1.616509545E-1,4.627191747E0
1.480436733E1,-1.060814289E0,5.148702008E0,7.996646279E-1,5.317322902E0
1.481428633E1,-4.264604171E0,5.827129297E0,6.667220405E-1,7.251675866E0
1.482420633E1,-6.077509995E0,6.113052880E0,-5.291736013E-1,8.636293647E0
1.483412633E1,-4.938644879E0,6.239916995E0,-7.486915255E-1,7.992954168E0
1.484404533E1,-3.221743319E0,6.161522205E0,-3.392696609E0,7.736561004E0
1.485396533E1,-1.955027663E0,4.992440432E0,-6.778802821E0,8.642844573E0
1.486388433E1,3.565793817E-2,4.057719156E0,-3.865050184E0,5.604013666E0
1.487380433E1,1.071592023E0,3.920580899E0,4.170535335E-1,4.085730987E0
1.488372433E1,1.269390465E0,4.096287975E0,1.855568718E0,4.672693291E0
1.489364333E1,1.095188900E0,3.857777125E0,1.014416340E0,4.136535215E0
1.490356333E1,9.219694490E-1,3.465943510E0,-5.626111963E-1,3.630333791E0
1.491348233E1,1.187023442E0,2.959367643E0,-6.958258255E-1,3.263595422E0
1.492340233E1,1.433119812E0,2.806997974E0,-3.080960785E-1,3.166700683E0
1.493332233E1,1.715981500E0,1.637240848E0,-2.284192868E-1,2.382713889E0
1.494324133E1,1.393723027E0,1.715139794E0,2.911621034E-1,2.229112774E0
1.495316133E1,9.494023190E-1,2.726865392E0,7.558141650E-1,2.984696748E0
1.496308133E1,2.139309243E0,2.780200185E0,1.262487096E0,3.728274503E0
1.497300033E1,3.456023124E0,3.872641332E0,2.151399384E0,5.618715692E0
1.498292033E1,2.600855556E0,4.143087335E0,2.394031352E0,5.446192101E0
1.499283933E1,1.178111043E0,1.469884180E0,1.788738112E0,2.597708446E0
1.500275933E1,1.567271311E0,-1.168671298E0,7.783158588E-1,2.104259381E0
1.501267933E1,3.618089815E0,-1.756987731E0,2.095690037E0,4.535360684E0
1.502259833E1,5.330486680E0,7.942319798E-1,5.110091089E0,7.426838064E0
1.503251833E1,4.430145863E0,3.688225998E0,7.671169206E0,9.595626106E0
1.504243733E1,5.493356779E-1,1.087534164E0,8.538320643E0,8.624814180E0
1.505235733E1,-2.773049040E0,8.994356686E-1,8.417362801E0,8.907905591E0
1.506227733E1,-4.512525530E0,1.342900198E0,7.334244454E0,8.715354801E0
1.507219633E1,-5.319546540E0,-1.170240106E0,5.351861762E0,7.636063227E0
1.508211633E1,-5.666727308E0,-2.244896947E0,3.657614654E0,7.108410909E0
1.509203533E1,-5.039381880E0,-2.034143414E0,3.516996135E0,6.473204073E0
1.510195533E1,-3.196658179E0,-2.901587212E0,4.893359363E0,6.525549611E0
1.511187533E1,-2.793568674E-1,-5.063735533E0,5.754019221E0,7.669954042E0
1.512179433E1,2.134950874E0,-5.246956866E0,4.555948123E0,7.269472806E0
1.513171433E1,3.489025101E0,-3.290521193E0,4.075689404E0,6.293812040E0
1.514163333E1,4.171795995E0,-1.154010574E0,4.935097958E0,6.564359381E0
1.515155333E1,4.429395080E0,-3.413458318E-1,5.654765074E0,7.191135223E0
1.516147333E1,5.091411574E0,-1.023204267E-2,5.162089208E0,7.250499397E0
1.517139233E1,4.463214498E0,9.678907764E-1,3.911529409E0,6.013082282E0
1.518131233E1,2.119562464E0,1.534531581E0,3.484313707E0,4.357496325E0
1.519123133E1,-1.416999331E0,9.508157372E-1,2.894947114E0,3.360454800E0
1.520115133E1,-4.538814319E0,-2.793659306E-1,2.394102103E0,5.139124986E0
1.521107133E1,-5.625107996E0,-1.782513167E0,2.400951532E0,6.370538550E0
1.522099033E1,-5.643067135E0,-2.396316444E0,1.294113370E0,6.265881311E0
1.523091033E1,-5.689915611E0,-3.998597374E0,4.589869867E-1,6.969547308E0
1.524082933E1,-6.109521747E0,-6.329447806E0,6.537508696E-2,8.797297279E0
1.525074933E1,-6.127073919E0,-1.111431150E1,-8.628233278E-1,1.272059036E1
1.526066933E1,-5.253171287E0,-1.560194192E1,-7.525308073E-1,1.647976647E1
1.527058833E1,-4.189532354E0,-1.722928636E1,-4.387148362E-1,1.773676860E1
1.528050833E1,-3.065733758E0,-1.702394735E1,-1.193780411E0,1.733893360E1
1.529042733E1,-1.166904416E0,-1.476067728E1,-3.219716674E0,1.515275008E1
1.530034733E1,4.189710694E0,-8.044409260E0,-7.382130811E0,1.169453083E1
1.531026733E1,8.593728274E0,-3.299689627E0,-9.331508310E0,1.310790466E1
1.532018633E1,9.743759233E0,-2.352792694E0,-1.015034771E1,1.426555418E1
1.533010975E1,6.826924821E0,-1.970605230E-1,-1.027946476E1,1.234152061E1
1.534002875E1,4.346956941E0,1.932151601E0,-9.157541950E0,1.031939044E1
1.534994875E1,3.310317526E0,3.445481179E0,-8.327648971E0,9.601004118E0
1.535986875E1,2.260760005E0,4.505666161E0,-6.833766063E0,8.491903318E0
1.536978775E1,1.525179983E0,5.416696858E0,-4.626453264E0,7.284974169E0
1.537970775E1,8.195501313E-2,6.753185000E0,-2.667099246E0,7.261242501E0
1.538962675E1,-1.585915305E0,7.575213473E0,-9.602642530E-1,7.798787980E0
1.539954675E1,-2.417087069E0,8.384596758E0,9.361710933E-1,8.776114688E0
1.540946675E1,-3.734484198E0,8.970126994E0,2.595130839E0,1.005704999E1
1.541938575E1,-5.472806740E0,8.902713860E0,3.562238089E0,1.104080920E1
1.542930575E1,-6.848703945E0,8.857828878E0,3.519071896E0,1.173668374E1
1.543922475E1,-8.230419130E0,8.861106243E0,2.194945938E0,1.229132989E1
1.544914475E1,-9.535967900E0,8.854184309E0,1.676037124E-1,1.301381399E1
1.545906475E1,-9.970071037E0,8.861185765E0,-1.809225879E0,1.346091482E1
1.546898375E1,-8.800734326E0,7.650904511E0,-3.455833966E0,1.216273213E1
1.547890375E1,-6.830251887E0,5.545279469E0,-4.555838780E0,9.907478601E0
1.548882275E1,-5.269083315E0,4.181430452E0,-4.272905463E0,7.969022568E0
1.549874275E1,-4.686378746E0,3.159516665E0,-1.928934171E0,5.972058133E0
1.550866275E1,-4.067188722E0,2.529924152E0,-3.752012104E-1,4.804509992E0
1.551858175E1,-2.439513334E0,1.869150192E0,1.494027919E-1,3.076892741E0
1.552850175E1,-5.229308215E-1,1.228715186E0,6.196788517E-1,1.472141139E0
1.553842075E1,1.990815254E0,7.173568815E-1,5.186000812E-1,2.178736403E0
1.554834075E1,5.505215517E0,-3.918119806E-1,-1.164405462E0,5.640634237E0
1.555826075E1,9.388340907E0,-3.050780089E0,-3.799288597E0,1.057746652E1
1.556817975E1,1.304277351E1,-6.265485114E0,-8.768812037E-1,1.449617760E1
1.557809975E1,1.505272699E1,-7.826004061E0,3.750228118E0,1.737512994E1
1.558801875E1,1.315496988E1,-7.604251916E0,6.837727552E0,1.666230470E1
1.559793875E1,7.594693472E0,-7.048324379E0,7.178390429E0,1.260505988E1
1.560785875E1,2.287732772E0,-6.852557845E0,6.458475391E0,9.690365041E0
1.561777775E1,8.885060531E-1,-5.240153046E0,6.795065097E0,8.626792951E0
1.562769775E1,9.070007962E-1,-2.206572542E0,7.159294007E0,7.546330467E0
1.563761675E1,3.514252621E-1,6.002435839E-1,5.411366537E0,5.455884884E0
1.564753675E1,-1.390850290E0,2.290811039E0,2.496920713E0,3.662907696E0
1.565745675E1,-4.105865715E0,6.664533609E-1,-1.849909344E0,4.552412320E0
1.566737575E1,-2.665768128E0,-4.057378263E0,-1.957435547E0,5.234519271E0
1.567729575E1,2.721332172E-1,-8.374687482E0,8.220451382E-1,8.419335195E0
1.568721475E1,2.309243217E0,-9.854511344E0,1.045106183E0,1.017527616E1
1.569713475E1,3.616283318E0,-1.059152949E1,-8.925301069E-1,1.122740451E1
1.570705475E1,4.627313097E0,-1.024772958E1,-1.110636806E0,1.129873896E1
1.571697375E1,3.578981591E0,-7.632890993E0,9.906022391E-1,8.488311195E0
1.572689375E1,-1.070729559E0,-4.146536023E0,-1.965722805E-1,4.287057667E0
1.573681275E1,-5.986739573E0,-1.435638793E0,-2.194258890E0,6.535815293E0
1.574673275E1,-8.331537369E0,2.231882215E-2,-2.974327744E0,8.846560835E0
1.575665275E1,-8.232770296E0,1.679817933E0,-2.874095943E0,8.880355991E0
1.576657175E1,-8.275966017E0,2.797205057E0,-3.119884822E0,9.276295109E0
1.577649175E1,-8.063251913E0,2.571548726E0,-3.612045841E0,9.201943784E0
1.578641075E1,-6.039833461E0,4.484182906E-1,-3.089047192E0,6.798741042E0
1.579633075E1,-4.304678648E0,-2.207810397E0,-2.136971087E0,5.288792910E0
1.580625075E1,-3.108309090E0,-5.948096495E0,-8.940664628E-1,6.770582851E0
1.581616975E1,-1.130394840E0,-9.872276355E0,4.841058943E-1,9.948567306E0
1.582608975E1,6.200114121E-1,-1.040634817E1,1.927550135E0,1.060150677E1
1.583600875E1,2.091982610E0,-7.917908843E0,2.346966528E0,8.519267783E0
1.584592875E1,1.878479132E0,-4.156803734E0,3.820640874E-1,4.577518334E0
1.585584875E1,1.449803819E0,-1.323856401E-1,-1.473722878E0,2.071549225E0
1.586576775E1,4.553413939E-1,2.566744654E0,-1.021517638E0,2.799823599E0
1.587568775E1,-2.716414663E-1,3.661840437E0,2.924189624E-1,3.683527294E0
1.588560675E1,-1.697542744E0,4.749037217E0,9.615620425E-1,5.134160829E0
1.589552675E1,-4.340328245E0,5.994185418E0,1.193440104E-1,7.401550587E0
1.590544675E1,-6.391160490E0,6.196410787E0,-3.917249740E0,9.725599445E0
1.591536575E1,-7.201467050E0,4.265933243E0,-8.825133587E0,1.216315325E1
1.592528575E1,-3.126974279E0,2.611431999E0,-4.829116005E0,6.318061935E0
1.593520475E1,-1.075198293E0,4.286249979E0,-2.807499665E-1,4.427957858E0
1.594512475E1,-3.956217340E-1,5.392554874E0,1.327123241E0,5.567532732E0
1.595504475E1,8.598193207E-1,5.424125161E0,1.749579163E0,5.763805191E0
1.596496375E1,1.610208147E0,4.678477696E0,9.665497175E-1,5.041343292E0
1.597488375E1,1.637966195E0,3.884821082E0,-4.327264103E-1,4.238162366E0
1.598480275E1,1.709646042E0,3.196106787E0,-8.346654761E-1,3.719496557E0
1.599472275E1,1.523157578E0,3.070255995E0,-7.011255956E-1,3.498293581E0
1.600464275E1,1.673718995E0,3.098169433E0,-8.917717230E-1,3.632526107E0
1.601456175E1,2.044550289E0,1.691908806E0,-1.569696736E-1,2.658454583E0
1.602448175E1,1.560696702E0,1.955300728E0,2.108774936E-1,2.510666137E0
1.603440075E1,2.198234997E0,3.077571446E0,2.090416141E-1,3.787793752E0
1.604432075E1,2.866382296E0,5.425805651E0,8.377435966E-1,6.193329376E0
1.605424075E1,2.280225532E0,6.297575219E0,1.653476227E0,6.898758275E0
1.606415975E1,1.922348160E0,6.342073699E0,1.449009036E0,6.783579324E0
1.607407975E1,2.932918932E0,4.140162558E0,2.612829045E-1,5.080475197E0
1.608399875E1,2.533785068E0,-3.594161839E0,1.055480897E0,4.522400472E0
1.609391875E1,2.108881356E0,-5.948266649E0,4.700557952E0,7.869212270E0
1.610383875E1,3.438560414E0,1.730447804E0,7.272005521E0,8.228013832E0
1.611375775E1,2.495540770E0,3.829081914E0,7.078600677E0,8.425923070E0
1.612367775E1,-5.531422153E-1,1.211622021E0,7.409551914E0,7.528310155E0
1.613359675E1,-3.011099422E0,1.577208654E0,6.682483392E0,7.497325600E0
1.614351675E1,-4.353540321E0,3.993548888E-1,5.477992051E0,7.008651408E0
1.615343675E1,-4.309849926E0,-2.276089504E0,5.021146753E0,6.997664219E0
1.616335575E1,-4.230982096E0,-3.258443953E0,5.057317629E0,7.354939027E0
1.617327575E1,-3.863865831E0,-3.301288256E0,5.199167572E0,7.270440616E0
1.618319475E1,-2.005111112E0,-5.162127800E0,5.199285686E0,7.596091471E0
1.619311475E1,1.074565332E0,-6.987454280E0,4.168284742E0,8.206936435E0
1.620303475E1,2.894930742E0,-5.739353819E0,3.032879423E0,7.107683438E0
1.621295375E1,4.109491281E0,-3.258521136E0,4.479463034E0,6.897207236E0
1.622287375E1,4.545029617E0,-1.624168228E0,6.655349972E0,8.221246858E0
1.623279275E1,3.879345165E0,-6.873331833E-1,6.080682110E0,7.245442756E0
1.624271275E1,3.284208831E0,-7.072511387E-1,4.427613434E0,5.557876621E0
1.625263275E1,2.510249148E0,-4.317432010E-1,3.799268131E0,4.574078193E0
1.626255175E1,6.792651951E-2,1.054878634E-1,3.252554637E0,3.254973636E0
1.627247175E1,-2.956203130E0,-6.721982503E-1,2.057359053E0,3.663838657E0
1.628239075E1,-5.196314131E0,-1.898687986E0,2.409031799E0,6.034080777E0
1.629231075E1,-6.652616984E0,-1.998822724E0,1.759923034E0,7.165886833E0
1.630222975E1,-6.791719905E0,-1.937024671E0,4.160542443E-1,7.074787981E0
1.631214975E1,-5.878615785E0,-3.683800240E0,-1.052357607E0,7.016834350E0
1.632206975E1,-5.419743258E0,-6.101985270E0,-2.359078451E0,8.495474816E0
1.633198500E1,-5.724134102E0,-1.021574765E1,-2.774741809E0,1.203438421E1
1.634190500E1,-5.130406655E0,-1.300723647E1,-1.950309545E0,1.411782491E1
1.635182400E1,-4.436447699E0,-1.467793099E1,-1.087149417E0,1.537223537E1
1.636174400E1,-4.046817315E0,-1.476014167E1,-1.280004331E0,1.535828518E1
1.637166400E1,-8.725906630E-1,-1.191661264E1,-4.453018416E0,1.275133108E1
1.638158300E1,6.595699602E0,-5.382710502E0,-6.945541438E0,1.098714574E1
1.639150300E1,1.167874089E1,-1.937478415E0,-7.677523960E0,1.410996759E1
1.640142200E1,9.400058727E0,3.728137922E-1,-8.977363508E0,1.300358219E1
1.641134200E1,6.072393681E0,1.909805297E0,-9.590479737E0,1.151080461E1
1.642126200E1,4.664159619E0,2.521736296E0,-9.358294989E0,1.075598550E1
1.643118100E1,3.890650756E0,2.877715369E0,-9.208406879E0,1.040255576E1
1.644110100E1,1.708350007E0,3.940128726E0,-7.848024675E0,8.946203967E0
1.645102000E1,3.554200798E-2,4.695931635E0,-5.428976011E0,7.178218281E0
1.646094000E1,-8.981840721E-1,5.587558347E0,-2.725595961E0,6.281434251E0
1.647086000E1,-1.658009281E0,6.431486397E0,-6.703598857E-2,6.642101014E0
1.648077900E1,-2.921896054E0,7.652341756E0,2.728366957E0,8.633643330E0
1.649069900E1,-4.857954765E0,8.343969135E0,5.143651183E0,1.093977572E1
