"Time (s)","Linear Acceleration x (m/s^2)","Linear Acceleration y (m/s^2)","Linear Acceleration z (m/s^2)","Absolute acceleration (m/s^2)"
4.964958294E-3,-6.811246097E-2,9.914626569E-2,4.428159564E0,4.429793044E0
1.488395827E-2,-2.006469128E-1,3.068314719E-1,3.926359702E0,3.943438252E0
2.480295824E-2,-3.287029821E-1,4.514734608E-1,3.122203243E0,3.171754566E0
3.472295823E-2,-1.990529618E-1,2.737607896E-2,2.060107976E0,2.069883186E0
4.464195832E-2,-3.299294356E-1,6.811278257E-1,1.442348472E0,1.628851639E0
5.456095829E-2,-5.991209185E-1,9.823605886E-1,1.292420016E0,1.730412580E0
6.447995827E-2,-9.112452900E-1,1.386111999E0,1.328272219E0,2.125083890E0
7.439895824E-2,-1.084452682E0,1.620829760E0,1.565086792E0,2.500524624E0
8.431895834E-2,-1.080401146E0,1.478324344E0,1.752935026E0,2.534855165E0
9.423795831E-2,-7.786973897E-1,7.251450804E-1,1.861721889E0,2.144344516E0
1.041569583E-1,-4.190804708E-1,-4.709927823E-1,3.282692356E0,3.342683315E0
1.140759583E-1,-7.982016546E-1,-7.508014932E-2,4.330287114E0,4.403878904E0
1.239959582E-1,-7.620480278E-1,-1.073594110E-1,5.153438253E0,5.210582411E0
1.339142083E-1,-5.324737698E-1,-6.999595146E-1,5.171044804E0,5.245300373E0
1.438332082E-1,1.644880235E-2,-1.221692826E0,4.975171850E0,5.123000963E0
1.537522083E-1,4.952650130E-1,-7.286341871E-1,5.960021891E0,6.024786814E0
1.636712083E-1,7.024964753E-1,1.701164802E-1,5.945298602E0,5.989074752E0
1.735912083E-1,1.512133237E0,8.136683439E-1,4.712875696E0,5.015954588E0
1.835102083E-1,2.904792363E0,1.238205509E0,2.869022314E0,4.266410739E0
1.934292082E-1,3.829409066E0,1.536341441E0,1.123223230E0,4.276254113E0
2.033482083E-1,4.327428995E0,1.791519633E0,-5.368585968E-1,4.714276345E0
2.132682083E-1,4.272127491E0,1.720350832E0,-1.651453090E0,4.892645255E0
2.231872083E-1,3.605993973E0,1.535292012E0,-1.576383612E0,4.224369703E0
2.331062083E-1,2.488165677E0,1.315597648E0,-7.807406992E-1,2.920842626E0
2.430252082E-1,1.238739653E0,1.350702576E0,1.727033615E-1,1.840842152E0
2.529452083E-1,-3.154815504E-1,1.523567175E0,1.149024653E-1,1.560124393E0
2.628642083E-1,-1.812212052E0,-6.716550440E-1,8.239773506E-1,2.100993026E0
2.727832083E-1,-2.645370408E0,-2.298039659E0,6.072678441E-1,3.556366841E0
2.827022083E-1,-2.523004557E0,-2.284672193E0,-1.783579114E0,3.842711735E0
2.926212082E-1,-2.291655377E0,-2.335567528E0,-3.215297933E0,4.587450364E0
3.025412083E-1,-1.119671631E0,-2.690628735E0,-3.335830683E0,4.429550078E0
3.124602083E-1,3.136533453E-1,-3.349175198E0,-2.980272608E0,4.494149280E0
3.223792083E-1,1.104230377E0,-3.975683890E0,-2.207663632E0,4.679654456E0
3.322982083E-1,1.310131525E0,-3.845944700E0,-2.301012091E0,4.669303148E0
3.422172082E-1,1.131258839E0,-2.900464547E0,-3.497127880E0,4.682130344E0
3.521372083E-1,3.773471020E-1,-2.131357614E0,-2.969928299E0,3.674989825E0
3.620562083E-1,1.795419360E-1,-3.029714910E0,-3.826013296E0,4.883624216E0
3.719752083E-1,4.896482507E-1,-2.869565228E0,-5.669326395E0,6.373022971E0
3.818942083E-1,1.391934071E0,-2.973460017E0,-3.625474264E0,4.891115269E0
3.918142082E-1,3.434267681E0,-5.162153528E0,-1.705793604E0,6.430533055E0
4.017332083E-1,2.464216066E0,-7.088622220E0,5.566958606E-2,7.504933371E0
4.116522083E-1,4.947222452E-1,-7.954797757E0,1.369703250E0,8.087004664E0
4.215712083E-1,-2.607244223E0,-8.353661479E0,-1.164197593E0,8.828178668E0
4.314902083E-1,-1.304055098E0,-8.699918388E0,-2.951294392E-1,8.802058909E0
4.414102082E-1,6.026538062E-1,-8.871265195E0,2.539375591E-1,8.895337096E0
4.513292083E-1,7.273638064E-1,-8.308300534E0,-3.302257140E0,8.970051176E0
4.612482083E-1,5.327371868E-1,-7.098695219E0,-6.596339287E0,9.704997409E0
4.711672083E-1,5.797414917E-1,-5.315012024E0,-9.203719166E0,1.064396071E1
4.810872083E-1,5.338800251E-1,-4.673813665E0,-9.265430680E0,1.039123514E1
4.910062082E-1,2.583194625E-1,-4.632051389E0,-7.391516177E0,8.726805854E0
5.009252083E-1,2.982296330E-1,-3.369664134E0,-3.739675063E0,5.042692423E0
5.108442083E-1,2.406228644E-1,-2.435908818E0,-8.552757418E-1,2.592884056E0
5.207632083E-1,7.968117714E-2,-1.078230367E0,2.001641082E0,2.274971831E0
5.306832083E-1,4.304778636E-2,5.214470905E-1,4.842897307E0,4.871079399E0
5.406022082E-1,1.393765127E0,2.388054328E0,5.815632502E0,6.439484925E0
5.505212083E-1,3.208704028E0,4.510445968E0,6.728434321E0,8.712733944E0
5.604402083E-1,4.809244827E0,5.482396173E0,5.409689555E0,9.080211710E0
5.703602083E-1,7.545703161E0,8.620732470E0,4.481528270E0,1.230198196E1
5.802792083E-1,1.026354747E1,1.137227194E1,2.193830289E0,1.547520168E1
5.901982082E-1,1.230001457E1,1.282918174E1,2.081690633E-1,1.777418343E1
6.001172083E-1,1.409279778E1,1.437716425E1,-1.194687899E0,2.016772373E1
6.100362083E-1,1.425174732E1,1.536742297E1,-3.234389677E0,2.120686839E1
6.199562083E-1,1.321142358E1,1.392744671E1,-3.601945068E0,1.953175602E1
6.298752083E-1,1.134279847E1,1.122580387E1,-1.373288763E0,1.601760505E1
6.397942082E-1,8.057906973E0,7.359833039E0,1.672367411E0,1.104055342E1
6.497132083E-1,3.778138633E0,3.061560016E0,4.169789815E0,6.405827687E0
6.596322083E-1,-1.322476459E-1,8.976265401E-2,4.600129099E0,4.602905007E0
6.695522083E-1,-2.739947952E0,-1.572249046E0,2.798998983E0,4.220625208E0
6.794712082E-1,-4.008710133E0,-2.735431563E0,-2.048849747E0,5.267839031E0
6.893902083E-1,-2.482734198E0,-1.913796460E0,-7.194836308E0,7.848073361E0
6.993092083E-1,-3.911722952E-1,-1.262179971E0,-8.945511385E0,9.042581931E0
7.092292083E-1,4.327752346E-1,-2.082051991E0,-7.551051024E0,7.844782117E0
7.191482083E-1,-8.355747181E-1,-2.375375226E0,-7.149837306E0,7.580287994E0
7.290672082E-1,-1.792103770E0,-2.932971265E0,-3.733593374E0,5.074807962E0
7.389862083E-1,-2.674020596E0,-3.525621362E0,2.205183828E-1,4.430465043E0
7.489052083E-1,-2.927486869E0,-3.836971270E0,2.919087344E0,5.640354494E0
7.588252083E-1,-2.789600753E0,-3.172367091E0,3.760728548E0,5.655869919E0
7.687442083E-1,-2.693528076E0,-1.649170630E0,3.817528693E0,4.954632437E0
7.786632082E-1,-2.173063903E0,-1.064142963E0,3.864081008E0,4.559136871E0
7.885822083E-1,-1.531804440E0,-1.634007338E-1,2.928489667E0,3.308953969E0
7.985012083E-1,-1.510172081E0,1.158424930E0,1.014600674E0,2.156845511E0
8.084212083E-1,-1.845330389E0,2.494563700E0,-6.789216712E-2,3.103659396E0
8.183402083E-1,-1.288003614E0,3.653406121E0,-3.117185748E-1,3.886321920E0
8.282592082E-1,-4.549648333E-1,3.990285557E0,-6.588251565E-1,4.069818474E0
8.381782083E-1,4.218719316E-1,3.544586806E0,-1.020247915E0,3.712543247E0
8.480982083E-1,6.110708731E-1,2.325455499E0,-3.551990916E-1,2.430497333E0
8.580172083E-1,-3.395185769E-1,1.915974110E0,3.046685138E-1,1.969531050E0
8.679362083E-1,-1.344046252E0,3.536220610E-1,-1.712017234E-1,1.400292441E0
8.778552082E-1,-3.252847583E0,-1.134906259E0,-1.113307448E0,3.620563918E0
8.877742083E-1,-4.550868062E0,-2.031649285E0,-1.578440809E0,5.227759971E0
8.976942083E-1,-4.944348253E0,-2.369883228E0,-2.566327747E0,6.053838804E0
9.076132083E-1,-4.488757768E0,-1.054491549E0,-2.590390794E0,5.288763862E0
9.175322083E-1,-4.153353876E0,2.080857405E-1,-3.455808531E0,5.407056565E0
9.274512082E-1,-4.522792071E0,1.939243982E0,-3.896408510E0,6.276807677E0
9.373702083E-1,-4.454876661E0,2.786610487E0,-4.973799509E0,7.235316553E0
9.472902083E-1,-3.487295787E0,1.886499465E0,-4.771574140E0,6.203872332E0
9.572092083E-1,-4.675152385E0,7.777627122E-1,-1.072609146E0,4.859264866E0
9.671282083E-1,-2.621396239E0,-2.194353030E0,1.014714695E0,3.566027114E0
9.770472082E-1,-5.508322728E-1,-5.454766325E0,8.645903563E-1,5.550262007E0
9.869672083E-1,-3.663784636E0,-1.841835508E0,1.186081967E0,4.268778084E0
9.968862083E-1,-4.538372562E0,2.477424341E-1,1.174762927E0,4.694493557E0
1.006805208E0,-3.811151428E0,-5.116059342E0,-1.291937621E0,6.509073760E0
1.016724208E0,-9.807903188E-1,-6.947844656E0,-7.802553803E-1,7.059978291E0
1.026643208E0,4.076681092E0,-6.594471102E0,-4.612663776E-1,7.766540060E0
1.036563208E0,5.928963820E0,-7.022030035E0,-1.715046823E0,9.348951995E0
1.046482208E0,5.623172568E0,-8.218222423E0,-1.088780791E0,1.001721983E1
1.056401208E0,5.627135226E0,-9.072616405E0,2.924577733E-1,1.068000706E1
1.066320208E0,5.234225723E0,-8.734212892E0,1.675645945E0,1.031946622E1
1.076239208E0,4.230169918E0,-7.591758755E0,2.836701829E0,9.141991894E0
1.086159208E0,4.335789344E0,-6.133639757E0,4.025238458E0,8.521921764E0
1.096078208E0,5.806233103E0,-4.174937704E0,2.419113130E0,7.549473889E0
1.105997208E0,7.943700911E0,-2.251577976E0,6.697558683E-1,8.283752801E0
1.115916208E0,9.410318252E0,-1.899317147E0,-5.028678551E-1,9.613239376E0
1.125836208E0,9.940313387E0,-1.234379969E0,-4.011879909E-1,1.002469331E1
1.135758958E0,1.086719764E1,1.398703101E0,-9.057375053E-1,1.099421281E1
1.145677958E0,1.115377319E1,3.230470288E0,-2.756178653E-1,1.161544488E1
1.155596958E0,1.196439257E1,4.847897261E0,-3.288105416E0,1.332142765E1
1.165515958E0,1.173290832E1,6.615792389E0,-2.517827140E0,1.370289386E1
1.175435958E0,1.132840262E1,9.364574899E0,-2.761793734E0,1.495511530E1
1.185354958E0,9.519728428E0,9.703020512E0,-1.765474673E0,1.370732422E1
1.195273958E0,7.160259383E0,8.009434140E0,-8.369359499E-1,1.077593669E1
1.205192958E0,3.493189781E0,6.326438829E0,-2.969900233E0,7.813226638E0
1.215111958E0,7.831877589E-2,4.460691133E0,-3.634799404E0,5.754621266E0
1.225031958E0,-2.697919335E0,2.361101003E0,-2.399012010E0,4.313794769E0
1.234950958E0,-5.074190354E0,3.217968357E-1,-1.314748778E0,5.251621207E0
1.244869958E0,-7.132115564E0,-3.081073344E-1,-6.851936871E-1,7.171575346E0
1.254788958E0,-8.367884247E0,-3.272324073E-1,-9.578198245E-1,8.428878136E0
1.264707958E0,-7.317630760E0,2.029346943E0,-7.636618593E-1,7.632112970E0
1.274627958E0,-6.538964653E0,2.758557301E0,7.412117672E-1,7.135621346E0
1.284546958E0,-7.492887601E0,2.750011595E0,1.063621099E0,8.052156122E0
1.294465958E0,-8.640217731E0,3.519509853E0,-7.033413979E-1,9.356014171E0
1.304384958E0,-7.306163201E0,3.545443423E0,-1.680239664E0,8.292972634E0
1.314303958E0,-4.296118909E0,2.515837040E0,-1.063750030E0,5.090936831E0
1.324223958E0,-8.411792743E-1,3.089353586E0,6.791482508E-2,3.202545952E0
1.334142958E0,1.035151298E0,4.691682463E0,-3.015488634E0,5.672441648E0
1.344061958E0,2.853664602E0,7.033266630E0,-4.295404964E0,8.721281153E0
1.353980958E0,4.514289050E0,3.989497352E0,-3.122407311E0,6.785596670E0
1.363900958E0,5.920742635E0,1.463496097E0,6.372161132E-1,6.132133279E0
1.373819958E0,5.626785563E0,-5.784182668E-1,6.778369542E0,8.828452702E0
1.383738958E0,-2.298201334E-1,-7.331609114E0,2.682366911E0,7.810275394E0
1.393657958E0,-6.068935053E0,-8.885043574E0,4.989035014E0,1.186028846E1
1.403576958E0,-7.382837740E0,-7.281478595E0,5.543107814E0,1.175807245E1
1.413496958E0,-7.040303169E0,-3.332270605E0,1.168602155E0,7.876263524E0
1.423415958E0,-5.645176810E0,-2.663949351E0,-2.308775439E0,6.655455761E0
1.433334958E0,-4.513138318E0,-2.736114810E0,-1.753298138E0,5.561366387E0
1.443253958E0,-4.024520420E0,-2.404904249E0,-1.656483450E0,4.972350197E0
1.453172958E0,-5.018416688E0,-3.787745608E0,-1.575310063E0,6.481753207E0
1.463092958E0,-5.911596420E0,-5.066960857E0,-1.246775481E0,7.885145126E0
1.473011958E0,-6.540171518E0,-5.570200887E0,-3.709263110E-1,8.598753848E0
1.482930958E0,-7.238333745E0,-5.930623845E0,-4.120065093E-2,9.357749307E0
1.492849958E0,-6.711824720E0,-4.908607147E0,9.671014023E-1,8.371278297E0
1.502768958E0,-5.678672585E0,-3.662651446E0,1.125606555E0,6.850498380E0
1.512688958E0,-4.655595202E0,-3.617329093E0,1.806064582E-1,5.898496007E0
1.522607958E0,-2.903535504E0,-2.959017395E0,-3.032950759E-2,4.145747489E0
1.532526958E0,-1.422983079E0,-2.209884989E-1,-1.875322512E0,2.364434665E0
1.542445958E0,-7.907259893E-1,1.288901162E0,-4.925419647E0,5.152307492E0
1.552364958E0,1.263241240E0,7.522448784E-1,-5.294485373E0,5.494836318E0
1.562284958E0,3.620335731E0,4.810989636E-1,-2.825098615E0,4.617301073E0
1.572203958E0,5.654568023E0,2.985658479E-1,-1.515245710E0,5.861676437E0
1.582122958E0,6.929599589E0,7.728837955E-1,-1.283062132E0,7.089636680E0
1.592041958E0,8.558941433E0,7.770674783E-1,-2.041972836E0,8.833400556E0
1.601960958E0,9.572303082E0,1.266137951E0,-3.202944521E0,1.017304995E1
1.611880958E0,1.057818848E1,2.242809491E0,-2.733124251E0,1.115339563E1
1.621799958E0,1.081428502E1,2.218717209E0,-3.318636360E0,1.152756756E1
1.631718958E0,9.086690653E0,4.019509356E0,-3.067704270E0,1.039880820E1
1.641637958E0,5.415365447E0,6.392170304E0,-3.685928042E0,9.152709416E0
1.651556958E0,1.644659795E0,6.677876955E0,-4.486671481E0,8.211526499E0
1.661476958E0,-5.525712347E-1,6.156287193E0,-3.602591770E0,7.154290631E0
1.671395958E0,-1.722268134E0,5.061636382E0,-2.498415846E0,5.901563533E0
1.681314958E0,-2.651838598E0,4.022907758E0,-1.467665747E0,5.036871799E0
1.691233958E0,-2.495905051E0,3.854562911E0,-2.735736787E-1,4.600221714E0
1.701152958E0,-2.285321673E0,3.631720845E0,5.518235220E-1,4.326268674E0
1.711072958E0,-2.201637492E0,3.263616984E0,1.391779997E0,4.175578406E0
1.720991958E0,-1.942160280E0,2.851692921E0,2.154545771E0,4.067702859E0
1.730910958E0,-1.513627201E0,2.383105245E0,2.063035092E0,3.496622899E0
1.740829958E0,-1.300671607E0,2.266618184E0,2.478308440E0,3.601571511E0
1.750748958E0,-1.795954161E0,2.535908777E0,2.933918806E0,4.273659350E0
1.760668958E0,-2.722853909E0,3.614615985E0,3.601342220E0,5.783515187E0
1.770587958E0,-3.707704535E0,4.397621895E0,4.042578961E0,7.030547340E0
1.780506958E0,-3.909464173E0,4.579361544E0,3.698686666E0,7.066452103E0
1.790425958E0,-3.592994735E0,4.457681571E0,2.618846269E0,6.295942497E0
1.800345958E0,-3.408648398E0,4.269681308E0,5.144824719E-1,5.487600076E0
1.810264958E0,-2.767531900E0,1.858601815E0,2.849428879E0,4.385530579E0
1.820183958E0,-2.501191227E0,4.565745133E0,3.381833067E0,6.207961103E0
1.830102958E0,-2.894233169E0,5.378220425E0,5.028682644E0,7.911351953E0
1.840021958E0,-4.030898855E0,-2.037286878E0,1.182995573E1,1.266280127E1
1.849941958E0,-6.720308445E0,-1.245685209E1,1.648169177E1,2.172514380E1
1.859860958E0,-1.037514977E1,-2.377239318E1,1.604076142E1,3.049715458E1
1.869779958E0,-1.451637359E1,-3.769480310E1,1.252716837E1,4.229129024E1
1.879698958E0,-1.527571641E1,-3.674602687E1,6.322988387E0,4.029389761E1
1.889617958E0,-9.443066753E0,-1.739308441E1,1.299544556E0,1.983380223E1
1.899537958E0,-4.494617555E0,-3.605295523E0,-1.992551877E0,6.096720902E0
1.909456958E0,-3.299043510E0,2.063254362E0,-4.512310060E0,5.958326000E0
1.919375958E0,-3.078293870E0,4.808496968E0,-6.607389940E0,8.732418798E0
1.929294958E0,-2.618777272E0,5.939045590E0,-9.441472217E0,1.145738428E1
1.939213958E0,-3.127220739E0,6.860438138E0,-1.143527218E1,1.369710082E1
1.949133958E0,-3.855632367E0,7.167550861E0,-8.254276940E0,1.159192711E1
1.959052958E0,-2.926861217E0,7.044597949E0,-4.849670722E0,9.039479131E0
1.968971958E0,-1.722780643E0,6.968025736E0,-2.785042264E0,7.699208804E0
1.978890958E0,-7.161997175E-1,6.915083292E0,-1.112977300E0,7.040599224E0
1.988809958E0,1.059148563E-1,6.856048048E0,9.203517437E-4,6.856866168E0
1.998729958E0,4.300556215E-1,6.783933753E0,8.935551238E-1,6.856029883E0
2.008648958E0,4.355404560E-1,6.642786060E0,1.810254697E0,6.898791502E0
2.018567958E0,5.154633424E-1,6.309528682E0,2.617444691E0,6.850319069E0
2.028486958E0,6.022360592E-1,5.956691317E0,3.233179303E0,6.804286011E0
2.038405958E0,4.476887408E-1,5.631277394E0,3.512969742E0,6.652267786E0
2.048325958E0,4.720762713E-1,5.150057393E0,3.324266059E0,6.147901430E0
2.058244958E0,7.908786017E-1,4.579881361E0,2.729221820E0,5.389754539E0
2.068163958E0,1.185374089E0,3.836764571E0,1.927560368E0,4.454364497E0
2.078082958E0,1.503795985E0,2.816849948E0,9.791209388E-1,3.339868830E0
2.088001958E0,1.453268879E0,1.341792151E0,-1.392093225E-1,1.982870607E0
2.097921958E0,9.638323702E-1,-3.716952199E-1,-1.261642027E0,1.630604421E0
2.107840958E0,4.367422780E-1,-2.300242597E0,-2.521007148E0,3.440543106E0
2.117759958E0,9.616879039E-2,-4.066451388E0,-3.698465642E0,5.497628892E0
2.127678958E0,2.405710069E-1,-5.205757969E0,-4.410751233E0,6.827336002E0
2.137598583E0,1.542500021E0,-5.936926559E0,-4.099227955E0,7.377673963E0
2.147517583E0,2.914839926E0,-5.578221513E0,-2.717598724E0,6.855522582E0
2.157437583E0,3.935692443E0,-4.214890559E0,-1.654152750E0,5.999266518E0
2.167356583E0,4.594330123E0,-2.764367679E0,-1.376428864E0,5.535716247E0
2.177275583E0,4.436274037E0,-1.627592357E0,-1.927326333E0,5.103348999E0
2.187194583E0,3.454798425E0,-8.342117321E-1,-2.966447452E0,4.629400809E0
2.197113583E0,3.001316738E0,-3.183101410E-1,-4.470181164E0,5.393676218E0
2.207033583E0,3.592155660E0,-2.349282610E-1,-6.696514370E0,7.602767804E0
2.216952583E0,3.285877334E0,-1.720505199E0,-6.798039576E0,7.744060309E0
2.226871583E0,1.416019630E0,-4.577095163E0,-4.670145414E0,6.690677836E0
2.236790583E0,4.786793127E-1,-7.321236738E0,-3.334643698E0,8.059124633E0
2.246709583E0,1.229692841E0,-8.307476662E0,-2.989877830E0,8.914352607E0
2.256629583E0,1.966444644E0,-7.153878901E0,-2.061842991E0,7.700395080E0
2.266548583E0,3.384269017E0,-3.312733011E0,6.651314224E0,8.165014249E0
2.276467583E0,2.725442179E0,-3.264484127E0,2.899018530E0,5.146765987E0
2.286386583E0,1.181907494E0,-3.033315040E0,-1.683046474E0,3.664771601E0
2.296305583E0,1.023023880E0,-2.046143655E0,1.813772528E0,2.919426742E0
2.306225583E0,9.405617675E-1,-1.868646162E0,2.476063110E0,3.241509438E0
2.316144583E0,-3.381202152E-1,-1.542541682E0,2.822186701E0,3.233960095E0
2.326063583E0,-1.667740217E0,-9.398551315E-1,3.229068711E0,3.753873978E0
2.335982583E0,-2.021395900E0,-4.322250116E-1,3.236129808E0,3.839973435E0
2.345901583E0,-1.314322809E0,-3.344531339E-1,2.945511204E0,3.242736436E0
2.355821583E0,-5.117184200E-1,-7.758079880E-1,2.665361162E0,2.822744037E0
2.365740583E0,9.642621405E-2,-1.824133648E0,2.481503359E0,3.081334208E0
2.375659583E0,2.715842367E-1,-2.933109552E0,2.346570672E0,3.766070041E0
2.385578583E0,1.478964029E-1,-3.752976310E0,2.122377753E0,4.314069060E0
2.395497583E0,-2.714377639E-1,-3.976761532E0,1.827832596E0,4.385120607E0
2.405417583E0,-6.941625850E-1,-3.387176253E0,1.617914192E0,3.817390600E0
2.415336583E0,-1.096383340E0,-2.222077603E0,1.439299150E0,2.865530901E0
2.425255583E0,-1.167467722E0,-1.019034033E0,9.655460429E-1,1.825839643E0
2.435174583E0,-6.275665994E-1,1.223214126E-1,3.636699164E-1,7.355665658E-1
2.445093583E0,-1.725118652E-1,1.279026384E0,-9.047393125E-2,1.293775238E0
2.455013583E0,1.766645943E-1,2.470790675E0,-3.886690291E-1,2.507405144E0
2.464932583E0,6.031191349E-1,3.434141673E0,-5.974918842E-1,3.537524315E0
2.474851583E0,9.474661598E-1,4.197457670E0,-6.719012117E-1,4.355203124E0
2.484770583E0,1.166853399E0,4.851568728E0,-6.662364292E-1,5.034196754E0
2.494689583E0,1.371616020E0,5.514371088E0,-6.488678598E-1,5.719322381E0
2.504609583E0,1.401012166E0,6.128361475E0,-4.318905509E-1,6.301283910E0
2.514528583E0,9.813159835E-1,6.450229647E0,-1.204175135E-2,6.524460787E0
2.524447583E0,1.021313058E0,6.502881485E0,3.071928298E-1,6.589758373E0
2.534366583E0,1.285251622E0,6.503342831E0,4.217409539E-1,6.642530025E0
2.544285583E0,1.379354956E0,6.369556198E0,6.205872166E-1,6.546678146E0
2.554205583E0,1.625633686E0,6.080258771E0,8.420651275E-1,6.349905927E0
2.564124583E0,1.983763220E0,5.754423848E0,8.650224656E-1,6.147924382E0
2.574043583E0,2.157336939E0,5.602169954E0,6.750756651E-1,6.041037826E0
2.583962583E0,2.039757765E0,5.717837820E0,2.462373060E-1,6.075764469E0
2.593881583E0,1.904607123E0,5.739926262E0,-1.505552415E-1,6.049541195E0
2.603800583E0,1.779115496E0,5.573592857E0,-3.787645036E-1,5.862904727E0
2.613720583E0,1.537300969E0,5.305126137E0,-5.798304059E-1,5.553724957E0
2.623639583E0,1.237523432E0,4.781917280E0,-7.718990513E-1,4.999402490E0
2.633558583E0,7.674405494E-1,4.039064199E0,-9.165516382E-1,4.212252546E0
2.643477583E0,4.160452177E-1,2.961467378E0,-9.915205443E-1,3.150634165E0
2.653396583E0,1.806613489E-1,1.427295401E0,-9.538697380E-1,1.726174429E0
2.663316583E0,-3.100384139E-1,-4.970799887E-1,-6.966238242E-1,9.102181528E-1
2.673235583E0,-9.294304231E-1,-2.557632937E0,-3.354483666E-1,2.741870303E0
2.683154583E0,-1.609549604E0,-4.513969207E0,-1.615472395E-2,4.792371950E0
2.693073583E0,-2.661905165E0,-6.103779196E0,9.387646258E-2,6.659630048E0
2.702992583E0,-3.691047864E0,-7.121792890E0,-9.691705126E-2,8.022042210E0
2.712912583E0,-4.103653128E0,-7.338510582E0,-7.087124310E-1,8.437771025E0
2.722831583E0,-4.116511740E0,-6.884053872E0,-1.494187548E0,8.158949874E0
2.732750583E0,-3.828244593E0,-6.139394587E0,-2.477566429E0,7.647611259E0
2.742669583E0,-3.146577654E0,-5.589279767E0,-3.390453032E0,7.255078981E0
2.752588583E0,-1.795891450E0,-4.725792196E0,-4.521419730E0,6.782446045E0
2.762508583E0,-1.250626457E0,-4.238948343E0,-5.499833740E0,7.055559564E0
2.772427583E0,-1.080399245E0,-4.977195572E0,-5.406841376E0,7.427898219E0
2.782346583E0,-1.011354007E0,-6.468271816E0,-4.074848574E0,7.711405068E0
2.792265583E0,-3.871853712E-1,-7.590397523E0,-2.720560924E0,8.072515024E0
2.802184583E0,-5.446027954E-1,-7.357340956E0,-1.669908657E0,7.564102925E0
2.812104583E0,-2.194998124E0,-6.915287944E0,-3.550335423E-1,7.263970879E0
2.822023583E0,-3.106654912E0,-7.432633213E0,1.068251216E0,8.126284630E0
2.831942583E0,-2.768102588E0,-7.841255938E0,1.586035026E0,8.465411610E0
2.841861583E0,-5.785603541E-1,-7.243855855E0,1.656789844E0,7.453397368E0
2.851780583E0,2.370522914E0,-5.484332771E0,1.209607655E0,6.095935983E0
2.861699583E0,1.977863964E0,5.492786676E-1,3.921914649E-1,2.089848573E0
2.871619583E0,-2.578832018E0,6.640284621E0,9.319298154E-1,7.184166452E0
2.881538583E0,-4.278336942E0,8.061730467E0,1.668204194E0,9.277853757E0
2.891457583E0,-4.835713126E0,6.187126577E0,1.964114236E0,8.094590876E0
2.901376583E0,-4.710334496E0,3.675287864E0,2.406108776E0,6.440834681E0
2.911295583E0,-3.495529836E0,1.414162554E0,2.678803618E0,4.625426833E0
2.921215583E0,-2.001378249E0,-5.232948107E-1,2.741226153E0,3.434191780E0
2.931134583E0,-3.493696734E-1,-2.238025884E0,3.107442532E0,3.845389202E0
2.941053583E0,1.066859579E0,-3.151217127E0,3.405500842E0,4.760860713E0
2.950972583E0,1.217327149E0,-2.792785732E0,3.835338435E0,4.898097431E0
2.960891583E0,9.209351496E-1,-2.036891021E0,4.261779966E0,4.812464551E0
2.970811583E0,2.581950630E-1,-1.251999968E0,3.987943162E0,4.187822737E0
2.980730583E0,-3.145579096E-1,-1.412792552E-1,3.292027436E0,3.310037937E0
2.990649583E0,-4.421552648E-1,7.575927418E-1,2.590696311E0,2.735170089E0
3.000568583E0,-1.077068087E-1,1.625738790E0,1.815487955E0,2.439390064E0
3.010487583E0,6.225561569E-2,2.539379100E0,1.041260908E0,2.745277081E0
3.020407583E0,2.505924767E-1,3.311582279E0,7.269281888E-1,3.399676216E0
3.030326583E0,4.040592661E-1,4.011739576E0,9.261939892E-1,4.137046485E0
3.040245583E0,8.563656628E-1,4.342321268E0,1.408100599E0,4.644552018E0
3.050164583E0,1.213970993E0,4.304750569E0,1.556934603E0,4.735889398E0
3.060083583E0,9.110926777E-1,4.340423847E0,1.172902928E0,4.587490634E0
3.070002583E0,1.929854888E-1,4.843039395E0,7.129779017E-1,4.899041893E0
3.079922583E0,-4.601950580E-1,5.671546583E0,3.793704213E-1,5.702818781E0
3.089841583E0,-9.660989702E-1,6.324844294E0,1.035306542E-1,6.399040643E0
3.099760583E0,-1.169220863E0,6.591329978E0,-2.536808664E-1,6.699034429E0
3.109679583E0,-1.023546768E0,6.399492188E0,-6.948468554E-1,6.517972108E0
3.119598583E0,-6.653328151E-1,5.936685069E0,-1.240875056E0,6.101366098E0
3.129518583E0,-5.229549412E-1,5.356207412E0,-1.834391857E0,5.685721871E0
3.139433208E0,-5.168284845E-1,4.656514385E0,-2.178051285E0,5.166637717E0
3.149352208E0,-6.054042999E-1,4.119105565E0,-2.159877262E0,4.690268096E0
3.159271208E0,-2.953589790E-1,3.677385260E0,-1.995872219E0,4.194508933E0
3.169190208E0,1.464830213E-1,3.545174451E0,-1.797074488E0,3.977335274E0
3.179110208E0,1.873166863E-1,3.816325629E0,-1.661491590E0,4.166531309E0
3.189029208E0,1.532555953E-1,3.947034872E0,-1.421473913E0,4.197994717E0
3.198948208E0,3.874496654E-1,3.560598822E0,-1.125630017E0,3.754334048E0
3.208867208E0,2.080609447E-1,2.710352855E0,-4.883249527E-1,2.761840548E0
3.218786208E0,2.395891863E-1,9.812136573E-1,1.522568178E-1,1.021452573E0
3.228705208E0,2.000032988E-1,-1.205218150E0,5.180100606E-1,1.326983998E0
3.238625208E0,2.129019459E-1,-3.411614106E0,5.442804676E-1,3.461311785E0
3.248544208E0,5.261807039E-1,-5.382302366E0,1.038523789E-1,5.408958330E0
3.258463208E0,1.677906040E0,-6.676648455E0,-9.356755418E-1,6.947552950E0
3.268382208E0,2.784801359E0,-6.498093785E0,-2.234464345E0,7.414389547E0
3.278301208E0,3.518191305E0,-5.219790702E0,-3.153677051E0,7.040565601E0
3.288221208E0,3.345503147E0,-3.738694485E0,-3.286607652E0,5.997667681E0
3.298140208E0,2.717049963E0,-2.537926651E0,-2.736464181E0,4.616456260E0
3.308059208E0,2.358480865E0,-1.879792709E0,-2.294753816E0,3.789716044E0
3.317978208E0,2.478901056E0,-1.586325633E0,-2.315776749E0,3.744890040E0
3.327897208E0,3.094168768E0,-1.348028206E0,-3.251787483E0,4.686702705E0
3.337817208E0,4.155970505E0,-8.669087774E-1,-5.678743336E0,7.090257227E0
3.347736208E0,3.792304097E0,-1.517769953E0,-6.636441246E0,7.792788231E0
3.357655208E0,2.459003273E0,-4.492203532E0,-4.264609433E0,6.664344175E0
3.367574208E0,1.346150081E0,-7.068745780E0,-2.861007535E0,7.743684592E0
3.377493208E0,1.659746635E0,-7.711789228E0,-2.462692866E0,8.263855526E0
3.387412208E0,2.364289489E0,-6.540556265E0,-1.862427063E0,7.199817749E0
3.397332208E0,1.929054916E0,-4.199232300E0,-1.040761117E0,4.736875392E0
3.407251208E0,1.254207585E0,-2.246371615E0,-3.404728425E-1,2.595215570E0
3.417170208E0,8.300276839E-1,-1.340598149E0,2.852178240E-1,1.602341587E0
3.427089208E0,4.538879954E-1,-1.194750465E0,1.231812018E0,1.775050374E0
3.437008208E0,-2.429371923E-3,-1.198136002E0,2.226664013E0,2.528550654E0
3.446928208E0,-9.190286650E-1,-9.078825563E-1,3.032574198E0,3.296266174E0
3.456847208E0,-1.703042197E0,-2.547912526E-1,3.559533459E0,3.954181300E0
3.466766208E0,-1.543872508E0,2.311269861E-1,3.753994310E0,4.065640821E0
3.476685208E0,-7.526288212E-1,1.051294291E-1,3.844596916E0,3.918983004E0
3.486604208E0,-4.831272896E-2,-5.492757440E-1,3.851516511E0,3.890786219E0
3.496524208E0,1.644303554E-1,-1.395128698E0,3.748695563E0,4.003266148E0
3.506443208E0,3.367550366E-2,-2.004023237E0,3.421863105E0,3.965651307E0
3.516362208E0,-3.071946571E-1,-2.371603187E0,3.029401499E0,3.859552264E0
3.526281208E0,-7.246103525E-1,-2.318227463E0,2.660182575E0,3.602195173E0
3.536200208E0,-1.216437057E0,-1.776418029E0,2.239139779E0,3.106304408E0
3.546119208E0,-1.607586548E0,-1.234516793E0,1.814372891E0,2.720352037E0
3.556039208E0,-1.720126299E0,-7.975309789E-1,1.306124720E0,2.302357907E0
3.565958208E0,-1.742798293E0,1.012445390E-2,8.375557548E-1,1.933635963E0
3.575877208E0,-1.591063632E0,1.087437100E0,3.403120075E-1,1.956991362E0
3.585796208E0,-1.281496832E0,2.170964168E0,-1.151404470E-1,2.523603945E0
3.595715208E0,-7.898198171E-1,3.075582808E0,-2.932847158E-1,3.188893363E0
3.605634208E0,-3.442333330E-1,3.979903826E0,-3.500821201E-1,4.010073383E0
3.615554208E0,1.862438319E-1,4.824048808E0,-2.099255669E-1,4.832204715E0
3.625473208E0,6.697834233E-1,5.340504130E0,1.368827337E-1,5.384081266E0
3.635392208E0,7.612699827E-1,5.619850765E0,5.067220473E-1,5.693770441E0
3.645311208E0,9.879397094E-1,5.661323896E0,8.651464266E-1,5.811634148E0
3.655230208E0,1.427651350E0,5.604517027E0,1.102034090E0,5.887552854E0
3.665150208E0,1.701316537E0,5.615425592E0,1.189129536E0,5.986778065E0
3.675069208E0,1.918356850E0,5.648296884E0,1.085775322E0,6.063188827E0
3.684988208E0,2.042277915E0,5.642674202E0,1.003700294E0,6.084248968E0
3.694907208E0,1.976754893E0,5.628463129E0,8.892164898E-1,6.031406392E0
3.704826208E0,1.810781092E0,5.657919647E0,6.219893789E-1,5.973094147E0
3.714746208E0,1.624805867E0,5.532606214E0,3.343157244E-1,5.775940844E0
3.724665208E0,1.639436185E0,5.227078087E0,6.786980152E-2,5.478567572E0
3.734584208E0,1.765622022E0,4.957836025E0,-2.923759854E-1,5.270962236E0
3.744503208E0,1.637843257E0,4.830237501E0,-5.698849133E-1,5.132104214E0
3.754422208E0,1.448571372E0,4.633825434E0,-9.874040314E-1,4.954358071E0
3.764341208E0,1.100183373E0,4.280266523E0,-1.511602310E0,4.670762947E0
3.774261208E0,5.778830273E-1,3.554693719E0,-1.921060603E0,4.081699409E0
3.784180208E0,-1.165897525E-1,2.441635873E0,-2.337552950E0,3.382208258E0
3.794099208E0,-8.034555971E-1,1.011814476E0,-2.945727843E0,3.216616538E0
3.804018208E0,-9.329445997E-1,-5.842596352E-1,-3.287475379E0,3.466877458E0
3.813937208E0,-1.515022346E0,-1.966388803E0,-3.107867625E0,3.977539291E0
3.823857208E0,-2.771813816E0,-3.130682876E0,-2.586308852E0,4.916616781E0
3.833776208E0,-3.824971907E0,-3.916941007E0,-2.124825543E0,5.872624671E0
3.843695208E0,-4.242711611E0,-4.666127207E0,-1.545266046E0,6.493165028E0
3.853614208E0,-4.408236930E0,-5.360339640E0,-1.085203464E0,7.024490049E0
3.863533208E0,-3.870025288E0,-5.739370192E0,-1.046401268E0,7.000887197E0
3.873452208E0,-3.031554736E0,-5.484218166E0,-1.903830028E0,6.549163441E0
3.883372208E0,-1.124324553E0,-4.762978148E0,-3.691652466E0,6.130119450E0
3.893291208E0,1.341228625E0,-3.781427107E0,-5.923533511E0,7.154462555E0
3.903210208E0,2.817266562E0,-3.996305850E0,-7.515323367E0,8.965909694E0
3.913129208E0,2.667989777E0,-5.827966034E0,-7.659154347E0,9.987292068E0
3.923048208E0,1.463432363E0,-7.553628477E0,-5.993494277E0,9.752994981E0
3.932968208E0,6.872741264E-1,-8.222786175E0,-3.971680301E0,9.157554402E0
3.942887208E0,-5.309134403E-1,-7.842852228E0,-2.377102493E0,8.212357543E0
3.952806208E0,-2.381984918E0,-7.319748037E0,-7.784633549E-1,7.736831953E0
3.962725208E0,-3.266945804E0,-7.162047461E0,4.574135010E-1,7.885244818E0
3.972644208E0,-3.593480054E0,-7.422621025E0,1.800708532E0,8.441027959E0
3.982563208E0,-3.181624403E0,-7.715049051E0,2.596968327E0,8.740077814E0
3.992483208E0,-2.518822628E-1,-6.413659991E0,1.756085068E0,6.654495767E0
4.002402208E0,-1.254499945E0,-2.022855949E-1,2.204790895E0,2.544757840E0
4.012321208E0,-4.287302770E0,5.319543616E0,4.911074088E0,8.414104707E0
4.022240208E0,-4.097569393E0,6.419994864E0,5.585760913E0,9.444952830E0
4.032159208E0,-3.590292152E0,6.532936174E0,4.376187172E0,8.644100124E0
4.042078208E0,-3.251051026E0,4.872223433E0,3.719702729E0,6.938593686E0
4.051998208E0,-2.761273040E0,2.756303784E0,4.106786066E0,5.664585699E0
4.061917208E0,-8.947907867E-1,7.774721056E-1,3.845661110E0,4.024204617E0
4.071836208E0,8.695306689E-2,-1.244061204E0,4.073230942E0,4.259866127E0
4.081755208E0,4.413593857E-1,-3.178047076E0,4.407047607E0,5.451316349E0
4.091674208E0,4.496413819E-1,-4.249022511E0,4.101552808E0,5.922761612E0
4.101594208E0,4.146950591E-1,-3.877164738E0,3.238479220E0,5.068740086E0
4.111513208E0,5.307627283E-1,-2.994465555E0,1.971101074E0,3.624054701E0
4.121432208E0,7.089417149E-1,-2.400404232E0,2.711809433E-1,2.517553959E0
4.131351208E0,5.962932050E-1,-1.484217460E0,-7.799296904E-1,1.779538529E0
4.141270208E0,-2.205695825E-2,1.033267325E-1,-1.052266683E0,1.057557608E0
4.151189208E0,-3.565256604E-2,1.176491949E0,-1.430466346E0,1.852468185E0
4.161109208E0,-6.568183921E-1,2.480206447E0,-1.685152933E0,3.069621284E0
4.171028208E0,-1.045589967E0,3.329934935E0,-1.834659805E0,3.943057399E0
4.180947208E0,-8.988464154E-1,4.089053800E0,-1.658348712E0,4.503155150E0
4.190866208E0,-6.036414009E-1,4.752760139E0,-1.498491098E0,5.019819464E0
4.200785208E0,-5.809880450E-1,5.239753681E0,-1.273400778E0,5.423478154E0
4.210704208E0,-8.712455110E-1,5.985353199E0,-6.509067839E-1,6.083354444E0
4.220624208E0,-9.879467992E-1,6.740807614E0,1.035565281E-1,6.813607717E0
4.230543208E0,-8.675351603E-1,7.196697477E0,8.223962635E-1,7.295300366E0
4.240462208E0,-7.442952964E-1,7.281078061E0,1.530498172E0,7.477332270E0
4.250381208E0,-8.598703377E-1,7.101869087E0,2.127208868E0,7.463306177E0
4.260300208E0,-1.209455554E0,6.591507733E0,2.301737146E0,7.085813349E0
4.270220208E0,-9.075715575E-1,5.827170812E0,1.978784900E0,6.220546237E0
4.280139208E0,-4.439727256E-1,5.039552034E0,1.228659638E0,5.206131096E0
4.290058208E0,-8.362792893E-2,4.107396516E0,5.137563208E-1,4.140247012E0
4.299977208E0,2.029187388E-1,3.100430551E0,-4.319754817E-2,3.107364099E0
4.309896208E0,5.418852288E-2,2.436873316E0,-5.088744074E-1,2.490028337E0
4.319815208E0,-1.338529441E-1,2.329499726E0,-9.553374622E-1,2.521339971E0
4.329735208E0,1.564812301E-1,2.587803985E0,-1.394486673E0,2.943774605E0
4.339654208E0,4.667582287E-1,2.486413266E0,-1.416477467E0,2.899400384E0
4.349573208E0,3.905692280E-1,2.246093872E0,-1.187717507E0,2.570633167E0
4.359492208E0,1.254775203E-1,2.063852533E0,-1.132320255E0,2.357409817E0
4.369411208E0,-4.412982823E-1,1.502964803E0,-8.429246682E-1,1.778811224E0
4.379331208E0,-2.401305654E-1,-1.670426720E-1,-3.157081300E-1,4.303923397E-1
4.389250208E0,9.150250764E-1,-2.254752429E0,9.463893950E-2,2.435187043E0
4.399169208E0,1.669074406E0,-3.776835288E0,2.733386207E-1,4.138237326E0
4.409088208E0,1.490655245E0,-4.453214298E0,2.469828443E-1,4.702570698E0
4.419007208E0,1.040299333E0,-4.499173413E0,-2.392352835E-1,4.624069379E0
4.428926208E0,1.598247667E0,-4.830114709E0,-9.381073987E-1,5.173436885E0
4.438846208E0,1.875994942E0,-4.768616034E0,-1.724605851E0,5.406784742E0
4.448765208E0,1.931246160E0,-4.394569064E0,-2.686133687E0,5.500660249E0
4.458684208E0,2.231615143E0,-4.032886031E0,-4.125932189E0,6.186080530E0
4.468603208E0,3.001870469E0,-3.144360098E0,-7.343122866E0,8.533444800E0
4.478522208E0,4.391153705E0,-1.053613881E0,-1.233904824E1,1.313942329E1
4.488441208E0,4.833779452E0,-2.740909819E0,-8.723186213E0,1.034272634E1
4.498361208E0,2.716719888E0,-7.133465686E0,-2.950087527E0,8.183514897E0
4.508280208E0,1.048038269E0,-9.153976318E0,-2.219890599E0,9.477424804E0
4.518199208E0,9.607896984E-1,-8.538003724E0,-2.587460754E0,8.973047285E0
4.528118208E0,1.448479278E0,-5.876974472E0,-1.675474037E0,6.280456545E0
4.538037208E0,1.818939858E0,-3.208045047E0,1.103042150E-1,3.689479943E0
4.547956208E0,1.201464676E0,-1.577392257E0,1.522222169E0,2.499768796E0
4.557876208E0,8.626608483E-1,-1.060173288E0,2.284458039E0,2.662123151E0
4.567795208E0,4.286825491E-1,-1.168495882E0,2.928851609E0,3.182345535E0
4.577714208E0,-1.025016904E-1,-8.530801123E-1,3.519961842E0,3.623311144E0
4.587633208E0,-3.742750114E-1,-1.648365176E-1,3.859630400E0,3.881236876E0
4.597552208E0,-3.753870057E-1,3.473146695E-1,4.014489229E0,4.046932993E0
4.607472208E0,-4.469980750E-1,1.436239886E-1,4.211429007E0,4.237519252E0
4.617391208E0,-5.511015370E-2,-8.678864318E-1,4.191728568E0,4.280987313E0
4.627310208E0,3.709065767E-1,-2.129289892E0,3.833429904E0,4.400753568E0
4.637229208E0,3.457470310E-1,-2.962643838E0,3.346786026E0,4.483054341E0
4.647148208E0,3.400393445E-2,-3.119489551E0,2.798173356E0,4.190721353E0
4.657067208E0,-8.368803283E-1,-2.635082232E0,2.351519901E0,3.629555469E0
4.666987208E0,-1.695065279E0,-2.184253135E0,1.987047455E0,3.404785697E0
4.676906208E0,-2.032018536E0,-1.938587632E0,1.482972003E0,3.175913617E0
4.686825208E0,-1.301824531E0,-1.550469337E0,8.198020001E-1,2.184210978E0
4.696744208E0,-5.862349708E-1,-5.108051580E-1,1.680945861E-1,7.955181584E-1
4.706663208E0,-2.623370844E-1,8.310782093E-1,-3.686903358E-1,9.462791869E-1
4.716582208E0,3.267894807E-1,2.042476866E0,-6.780501437E-1,2.176753342E0
4.726502208E0,8.340586813E-1,3.002077460E0,-7.858318698E-1,3.213355674E0
4.736421208E0,1.218845305E0,3.705340213E0,-6.034933202E-1,3.947066526E0
4.746340208E0,1.333939779E0,4.211275810E0,-1.940445292E-1,4.421752205E0
4.756259208E0,1.530087990E0,4.556103074E0,4.107563746E-1,4.823687933E0
4.766178208E0,1.606273848E0,4.768913072E0,1.037765003E0,5.138054473E0
4.776097208E0,1.816685318E0,4.966192866E0,1.559646396E0,5.513248952E0
4.786017208E0,2.081443442E0,5.202331501E0,1.919425721E0,5.922909331E0
4.795936208E0,2.108205271E0,5.533065805E0,2.266407246E0,6.340027482E0
4.805855208E0,2.040708814E0,5.880512622E0,2.362434314E0,6.657778687E0
4.815774208E0,2.100143130E0,6.138327470E0,2.192086942E0,6.847985869E0
4.825693208E0,2.266666277E0,6.340355203E0,1.900328861E0,6.996365477E0
4.835612208E0,2.360791100E0,6.464310912E0,1.541811073E0,7.052505340E0
4.845532208E0,2.102545313E0,6.520047156E0,1.314431859E0,6.975632073E0
4.855451208E0,1.826468149E0,6.405451670E0,1.325018828E0,6.791279105E0
4.865370208E0,1.595224072E0,6.197532282E0,1.415619242E0,6.554244737E0
4.875289208E0,1.302647673E0,6.054493600E0,1.064539404E0,6.283870452E0
4.885208208E0,8.019203375E-1,5.742142941E0,6.104670019E-1,5.829918674E0
4.895127208E0,-6.904801548E-2,5.058618634E0,8.563598156E-2,5.059814585E0
4.905047208E0,-8.613088989E-1,3.940442137E0,-6.602219832E-1,4.087154306E0
4.914966208E0,-1.305649049E0,2.525777307E0,-1.478496691E0,3.204718850E0
4.924885208E0,-1.570955203E0,8.470428622E-1,-2.018150110E0,2.694125411E0
4.934804208E0,-2.062758665E0,-1.220613869E0,-2.324912439E0,3.339174954E0
4.944723208E0,-3.070109522E0,-3.437630707E0,-2.634989262E0,5.309053189E0
4.954643208E0,-4.021927764E0,-5.367391967E0,-2.929632797E0,7.318985435E0
4.964562208E0,-4.064620917E0,-6.447551038E0,-2.869271990E0,8.144002661E0
4.974481208E0,-3.427461230E0,-6.619610036E0,-2.961334062E0,8.020986656E0
4.984400208E0,-3.064064378E0,-5.835838140E0,-3.128132905E0,7.295938102E0
4.994319208E0,-2.424113522E0,-4.822585834E0,-3.263197739E0,6.307306872E0
5.004238208E0,-1.376756600E0,-3.876905122E0,-4.033055016E0,5.761196475E0
5.014158208E0,-2.359136631E-1,-3.141680903E0,-5.737813078E0,6.545862287E0
5.024077208E0,5.975569345E-1,-3.359663349E0,-7.562250781E0,8.296508240E0
5.033996208E0,4.985184038E-1,-4.535582855E0,-8.579256999E0,9.717184937E0
5.043915208E0,-3.095154901E-1,-6.146759155E0,-8.052549169E0,1.013518604E1
5.053834208E0,-7.837511382E-1,-7.423196976E0,-6.497765172E0,9.896417100E0
5.063753208E0,-5.319954675E-1,-8.028426481E0,-5.063968252E0,9.506967203E0
5.073673208E0,-4.894341695E-1,-7.344150222E0,-3.169133581E0,8.013706754E0
5.083592208E0,-1.813734959E0,-6.127849259E0,-6.411121130E-1,6.422709381E0
5.093511208E0,-2.055054812E0,-5.681300324E0,6.067692228E-1,6.071951296E0
5.103430208E0,-9.734994256E-1,-5.275655585E0,7.124877588E-1,5.411827953E0
5.113349208E0,-6.371778139E-1,-3.787136913E0,1.959911842E0,4.311572334E0
5.123268208E0,-2.560306284E0,-1.121612906E-1,4.188038975E0,4.909930639E0
5.133188208E0,-4.136387596E0,2.366692695E0,5.290584111E0,7.120478698E0
5.143107708E0,-5.726358967E0,2.858724782E0,5.095834408E0,8.181138229E0
5.153026708E0,-6.866385925E0,2.568660786E0,4.120335234E0,8.409663272E0
5.162945708E0,-5.917874576E0,1.629855230E0,3.062227768E0,6.859657897E0
5.172864708E0,-3.374903239E0,4.428593427E-1,2.099460322E0,3.999228665E0
5.182783708E0,-1.126395929E0,-1.053805085E0,1.834967369E0,2.397160443E0
5.192703708E0,1.217346445E-1,-2.315283390E0,2.483049363E0,3.397188638E0
5.202622708E0,2.371794391E-1,-3.136759302E0,3.376887492E0,4.615071195E0
5.212541708E0,-6.846979894E-2,-3.329658946E0,4.203877913E0,5.363199261E0
5.222460708E0,-1.376060343E-1,-3.064333935E0,4.083449829E0,5.107214543E0
5.232379708E0,-6.627815288E-2,-2.401666646E0,3.050088363E0,3.882709685E0
5.242298708E0,-3.363384224E-1,-8.602037752E-1,1.985366526E0,2.189692744E0
5.252218708E0,-3.238676271E-1,5.669933921E-1,1.309227837E0,1.463027435E0
5.262137708E0,-4.591055390E-1,1.699375116E0,9.810388255E-1,2.015214841E0
5.272056708E0,-5.997204043E-1,2.854653951E0,4.943575251E-1,2.958564366E0
5.281975708E0,-5.282623127E-1,3.886884565E0,-4.571704030E-2,3.922884492E0
5.291894708E0,-3.453230347E-1,4.848030578E0,-5.758450533E-1,4.894307511E0
5.301813708E0,-1.634608139E-1,5.653413198E0,-8.581626584E-1,5.720510762E0
5.311733708E0,7.478647292E-2,6.163641236E0,-6.605292544E-1,6.199384259E0
5.321652708E0,1.683391459E-1,6.508191342E0,-2.061539666E-1,6.513631250E0
5.331571708E0,-4.157507373E-1,6.864104927E0,-2.732360020E-2,6.876738449E0
5.341490708E0,-3.899062268E-2,6.625069581E0,3.168344499E-1,6.632755935E0
5.351409708E0,3.551887128E-1,6.429782519E0,6.525773335E-1,6.472566681E0
5.361328708E0,1.772512893E-1,6.751690452E0,6.601496239E-1,6.786202141E0
5.371248708E0,3.390514848E-2,7.202372784E0,5.805076231E-1,7.225808770E0
5.381167708E0,-1.152260722E-1,7.468736261E0,4.674948317E-1,7.484240095E0
5.391086708E0,-3.656897274E-1,7.501240348E0,2.269732703E-1,7.513577883E0
5.401005708E0,-5.222927806E-1,7.293304589E0,2.349177361E-2,7.312019792E0
5.410924708E0,-4.687398135E-1,6.709280596E0,-1.936714768E-1,6.728422681E0
5.420843708E0,-3.327551391E-1,5.756668594E0,-4.822995432E-1,5.786412718E0
5.430763708E0,-2.109718165E-1,4.492614591E0,-7.450076334E-1,4.558851977E0
5.440682708E0,-6.168812513E-4,3.061405064E0,-8.595928873E-1,3.179795792E0
5.450601708E0,1.279928828E-1,1.601330173E0,-8.974780208E-1,1.840137848E0
5.460520708E0,1.239228918E-1,4.532118380E-2,-9.494708776E-1,9.585957648E-1
5.470439708E0,2.984272689E-4,-1.294424441E0,-1.069759213E0,1.679261593E0
5.480358708E0,-7.799717903E-2,-2.411921493E0,-1.314825962E0,2.748129574E0
5.490278708E0,1.930190738E-1,-3.385921440E0,-1.628363020E0,3.762085391E0
5.500197708E0,6.015745198E-1,-4.226542890E0,-1.779451418E0,4.625149085E0
5.510116708E0,8.200280681E-1,-4.797069170E0,-1.786251876E0,5.184111729E0
5.520035708E0,1.137388110E0,-5.162918928E0,-1.741456942E0,5.566152698E0
5.529954708E0,1.573644192E0,-5.226192234E0,-1.597504340E0,5.686955373E0
5.539873708E0,1.805232962E0,-4.919799888E0,-1.534508777E0,5.460587346E0
5.549793708E0,1.888539412E0,-4.661354125E0,-1.617539824E0,5.283108789E0
5.559712708E0,2.058045370E0,-4.609826707E0,-1.918684294E0,5.400685367E0
5.569631708E0,2.154951421E0,-4.867602963E0,-2.564820335E0,5.908948941E0
5.579550708E0,2.011328164E0,-5.725019370E0,-2.840125959E0,6.699821135E0
5.589469708E0,1.431513582E0,-7.084054375E0,-1.856264244E0,7.461821123E0
5.599388708E0,8.963019264E-1,-8.179047832E0,-1.290543644E0,8.328606335E0
5.609308708E0,1.195098666E0,-8.172509476E0,-2.019143260E0,8.502653201E0
5.619227708E0,1.841424595E0,-6.934452193E0,-2.508500246E0,7.600660843E0
5.629146708E0,1.942197118E0,-4.921143578E0,-3.096481926E0,6.130088423E0
5.639065708E0,1.431716480E0,-2.900343509E0,-3.037004049E0,4.436800440E0
5.648984708E0,1.004896635E0,-1.790990460E0,-1.485181666E0,2.534408936E0
5.658903708E0,3.002282844E-1,-1.770594202E0,-3.561422110E-1,1.830840825E0
5.668823708E0,-1.068452799E0,-1.791565826E0,7.693365821E-1,2.223325948E0
5.678742708E0,-1.583656671E0,-1.111688427E0,2.075864468E0,2.837786620E0
5.688661708E0,-6.963164800E-1,-2.613717091E-1,2.848721658E0,2.944212441E0
5.698580708E0,3.947057676E-1,-1.509113735E-1,3.169988444E0,3.198029646E0
5.708499708E0,1.080172374E0,-8.025402886E-1,3.026196932E0,3.311904459E0
5.718418708E0,1.456756304E0,-2.200529444E0,2.882505116E0,3.908107536E0
5.728337708E0,1.421926487E0,-3.375018722E0,2.829584599E0,4.628085491E0
5.738257708E0,9.105771726E-1,-3.560135137E0,2.690413265E0,4.554342600E0
5.748176708E0,2.100123250E-1,-3.008381928E0,2.426350082E0,3.870612577E0
5.758095708E0,-1.120480739E-1,-1.991048266E0,1.964384962E0,2.799220650E0
5.768014708E0,-2.134674082E-1,-8.264092076E-1,1.586168343E0,1.801235833E0
5.777933708E0,-2.369005269E-1,2.178994149E-1,1.451056731E0,1.486326899E0
5.787852708E0,-1.454434960E-1,1.157524166E0,1.317967086E0,1.760128758E0
5.797772708E0,1.769691977E-1,1.944106234E0,1.015954889E0,2.200688865E0
5.807691708E0,4.467295416E-1,2.734248086E0,5.485833971E-1,2.824291703E0
5.817610708E0,6.727939354E-1,3.469598020E0,1.850059032E-2,3.534275650E0
5.827529708E0,7.790066343E-1,4.100610822E0,-4.394358345E-1,4.197018501E0
5.837448708E0,7.095059712E-1,4.611824116E0,-8.004639423E-1,4.734243648E0
5.847367708E0,5.745355329E-1,4.822317447E0,-1.087341206E0,4.976660279E0
5.857287708E0,4.338037233E-1,4.792051089E0,-1.131934412E0,4.942996543E0
5.867206708E0,4.429846193E-1,4.709671422E0,-9.594608456E-1,4.826780023E0
5.877125708E0,5.657745400E-1,4.773428877E0,-6.738968664E-1,4.853850128E0
5.887044708E0,7.990881655E-1,5.062577784E0,-4.136806402E-1,5.141922538E0
5.896963708E0,9.588495923E-1,5.462510378E0,-2.085642986E-1,5.549946958E0
5.906882708E0,1.121247748E0,5.790730965E0,-4.855531532E-2,5.898484486E0
5.916802708E0,1.387326758E0,6.068181932E0,-3.858614154E-3,6.224750789E0
5.926721708E0,1.590323667E0,6.214274030E0,-1.368719894E-2,6.414555201E0
5.936640708E0,1.733074958E0,6.175147972E0,7.906495370E-3,6.413740234E0
5.946559708E0,1.690259014E0,6.036819806E0,5.615315080E-2,6.269236164E0
5.956478708E0,1.433598845E0,5.671912619E0,8.019924045E-2,5.850831592E0
5.966397708E0,1.195048819E0,5.270893028E0,5.491770722E-2,5.404948746E0
5.976316708E0,8.882360579E-1,4.908017163E0,7.745989300E-2,4.988345999E0
5.986236708E0,4.717785750E-1,4.563792163E0,4.277771808E-2,4.588311657E0
5.996155708E0,1.422645110E-1,4.029142644E0,7.557526231E-3,4.031660545E0
6.006074708E0,1.397207529E-1,3.230743353E0,-9.168302581E-2,3.235062639E0
6.015993708E0,1.135032266E-1,2.152223842E0,-1.827510707E-1,2.162949006E0
6.025912708E0,-4.190324505E-1,6.245574760E-1,-1.371579914E-1,7.645080445E-1
6.035831708E0,-1.334137268E0,-1.254468078E0,1.484268916E-1,1.837292288E0
6.045751708E0,-2.372662264E0,-3.510143198E0,4.871636957E-1,4.264734453E0
6.055670708E0,-3.413211273E0,-5.912508586E0,7.896705669E-1,6.872506717E0
6.065589708E0,-3.974171800E0,-7.763737646E0,8.017294259E-1,8.758563456E0
6.075508708E0,-3.747708845E0,-8.104121611E0,3.888373558E-1,8.937186535E0
6.085427708E0,-3.482441721E0,-7.161256333E0,-3.640532014E-1,7.971419406E0
6.095346708E0,-2.799119436E0,-5.672793794E0,-1.573795342E0,6.518626452E0
6.105266708E0,-2.018788041E0,-4.259069197E0,-3.032318675E0,5.604474295E0
6.115185708E0,-1.540330704E0,-3.746920348E0,-4.396691603E0,5.978538937E0
6.125104708E0,-8.148524782E-1,-5.228328221E0,-5.703603943E0,7.780134863E0
6.135023583E0,3.092137738E-1,-7.924046665E0,-6.380669416E0,1.017836288E1
6.144942583E0,1.029400415E0,-9.932288668E0,-6.117419581E0,1.171037342E1
6.154861583E0,1.114897525E0,-1.029506396E1,-5.090858427E0,1.153898514E1
6.164781583E0,6.805467586E-1,-9.374531538E0,-3.678895011E0,1.009352535E1
6.174700583E0,-1.013876496E-1,-8.638265346E0,-1.942405279E0,8.854538153E0
6.184619583E0,9.159970298E-2,-8.292795473E0,-1.106807391E-1,8.294039877E0
6.194538583E0,1.653761863E0,-7.673685263E0,6.030620150E-1,7.872995466E0
6.204457583E0,1.409965715E0,-3.838810512E0,1.016890370E0,4.214087741E0
6.214376583E0,-3.831995582E0,2.068403420E0,3.347933249E0,5.492826221E0
6.224295583E0,-5.175412674E0,3.174887826E0,4.332710785E0,7.459034240E0
6.234215583E0,-5.656216353E0,2.588760590E0,4.119782088E0,7.461036743E0
6.244134583E0,-7.071237863E0,2.335085571E0,4.270587627E0,8.584459693E0
6.254053583E0,-6.859291499E0,2.184165426E0,4.203550469E0,8.336083914E0
6.263972583E0,-4.624941174E0,2.016248596E0,3.507824192E0,6.144930417E0
6.273891583E0,-2.695462920E0,1.719466149E0,3.231063488E0,4.545531372E0
6.283810583E0,-1.444413855E0,1.238230945E0,3.602100019E0,4.073655828E0
6.293730583E0,-6.559893300E-1,6.518774217E-1,4.041080904E0,4.145551959E0
6.303649583E0,-1.884513751E-1,1.862747490E-2,4.426708285E0,4.430756949E0
6.313568583E0,1.163378106E-1,-2.111967516E-1,4.497561920E0,4.504020624E0
6.323487583E0,2.258973826E-1,-1.039178860E-1,3.787131066E0,3.795285268E0
6.333406583E0,-4.538776897E-2,-4.283670187E-3,2.627997746E0,2.628393150E0
6.343325583E0,-7.230440296E-1,4.469085395E-2,2.009642411E0,2.136223903E0
6.353244583E0,-1.250818392E0,5.763050830E-1,1.993945561E0,2.423322739E0
6.363164583E0,-1.318903517E0,1.181121190E0,1.268900614E0,2.178224626E0
6.373083583E0,-6.122996655E-1,1.733252714E0,3.128397784E-1,1.864656691E0
6.383002583E0,2.851683419E-1,2.431452363E0,-7.957598573E-1,2.574201881E0
6.392921583E0,1.477201678E0,3.293414980E0,-1.629588012E0,3.960336364E0
6.402840583E0,2.875869403E0,3.794106209E0,-1.686772173E0,5.050848158E0
6.412759583E0,3.456217836E0,4.170572172E0,-9.744010663E-1,5.503505375E0
6.422679583E0,2.907907467E0,4.789481238E0,-2.888026057E-1,5.610567112E0
6.432598583E0,1.891161450E0,5.556508462E0,1.222755119E-2,5.869533835E0
6.442517583E0,9.051119994E-1,6.219742346E0,1.936115429E-2,6.285284197E0
6.452436583E0,1.409507878E-2,6.799472144E0,-1.004677364E-1,6.800228957E0
6.462355583E0,-7.274735878E-1,7.305184962E0,-2.721338019E-1,7.346359775E0
6.472274583E0,-1.015573870E0,7.637433695E0,-3.393269344E-1,7.712128533E0
6.482194583E0,-1.215916143E0,7.752411590E0,-2.823176050E-1,7.852263416E0
6.492113583E0,-1.307278083E0,7.368091062E0,-5.024436396E-1,7.500012766E0
6.502032583E0,-9.903908622E-1,6.682871647E0,-8.125327416E-1,6.804546786E0
6.511951583E0,-6.166277014E-1,5.798027120E0,-9.981226355E-1,5.915538606E0
6.521870583E0,-7.444938093E-2,4.630124146E0,-1.121780137E0,4.764659799E0
6.531789583E0,4.695364601E-1,3.363608465E0,-1.313601701E0,3.641411241E0
6.541708583E0,9.466914768E-1,2.075154031E0,-1.447353689E0,2.701355531E0
6.551628583E0,1.040593082E0,8.785324574E-1,-1.470446244E0,2.004211915E0
6.561547583E0,6.450613955E-1,-5.503574789E-2,-1.272668706E0,1.427872114E0
6.571466583E0,-1.894230361E-1,-9.849096823E-1,-9.222118892E-1,1.362498784E0
6.581385583E0,-8.555602089E-2,-2.008782871E0,-7.966901493E-1,2.162693610E0
6.591304583E0,6.731460840E-1,-2.863783793E0,-1.100492179E0,3.140933986E0
6.601223583E0,1.270500851E0,-3.666661466E0,-1.407015502E0,4.127744099E0
6.611142583E0,1.370144422E0,-4.215142574E0,-1.638417015E0,4.725371199E0
6.621062583E0,1.296395684E0,-4.774529908E0,-1.770324207E0,5.254600404E0
6.630981583E0,1.565139270E0,-5.340169669E0,-1.908435441E0,5.882958343E0
6.640900583E0,1.934458913E0,-5.540559597E0,-2.271801887E0,6.292933795E0
6.650819583E0,2.183351786E0,-5.268824283E0,-2.563867823E0,6.253075448E0
6.660738583E0,1.924879273E0,-4.843292579E0,-2.461260883E0,5.763718275E0
6.670657583E0,1.605270904E0,-4.694162852E0,-2.441422450E0,5.529249781E0
6.680577583E0,1.410825841E0,-5.126508901E0,-2.419350234E0,5.841641774E0
6.690496583E0,9.076476444E-1,-6.333299367E0,-2.013365918E0,6.707320437E0
6.700415583E0,-5.230305165E-2,-7.719377160E0,-1.179072325E0,7.809080029E0
6.710334583E0,-4.604823390E-1,-8.457759460E0,-6.292715013E-1,8.493628299E0
6.720253583E0,5.476631915E-1,-8.008929525E0,-7.007209682E-1,8.058157170E0
6.730172583E0,1.224303900E0,-6.752419015E0,-7.114938784E-1,6.899297510E0
6.740092583E0,1.347024239E0,-5.221502182E0,-9.305855405E-1,5.472161254E0
6.750011583E0,1.286721320E0,-3.546532760E0,-8.340842628E-1,3.863837849E0
6.759930583E0,1.371379062E0,-2.238194869E0,-2.485218680E-1,2.636656959E0
6.769849583E0,9.697634934E-1,-1.349805760E0,8.681419551E-1,1.875123270E0
6.779768583E0,3.282096963E-1,-7.287028188E-1,1.924882489E0,2.084202965E0
6.789687583E0,-7.880523500E-1,-1.784453273E-2,2.822211260E0,2.930225474E0
6.799606583E0,-1.023492389E0,3.518310589E-1,3.520964055E0,3.683545797E0
6.809526583E0,-7.910383768E-2,-2.850833380E-1,3.418161818E0,3.430941582E0
6.819445583E0,4.181495575E-1,-1.580135186E0,3.288027356E0,3.671893265E0
6.829364583E0,5.353629156E-1,-3.109373283E0,3.148513960E0,4.457348519E0
6.839283583E0,5.975532800E-1,-4.227187253E0,2.773143765E0,5.090825899E0
6.849202583E0,6.786952378E-1,-4.182220995E0,2.026291773E0,4.696536812E0
6.859121583E0,4.603952886E-1,-2.945324385E0,1.306263153E0,3.254723180E0
6.869040583E0,-2.904111747E-1,-1.561736922E0,9.480510275E-1,1.849908542E0
6.878960583E0,-8.363766637E-1,-5.598182738E-1,6.112690938E-1,1.177528058E0
6.888879583E0,-9.407718287E-1,1.453793228E-1,5.509024394E-1,1.099854663E0
6.898798583E0,-7.306003864E-1,7.825048041E-1,7.655584037E-1,1.316119433E0
6.908717583E0,-5.215177322E-1,1.312874161E0,9.071111624E-1,1.678829940E0
6.918636583E0,-4.604604851E-1,1.817748488E0,1.051008947E0,2.149616996E0
6.928555583E0,-5.281577206E-1,2.305462407E0,1.151298051E0,2.630512248E0
6.938474583E0,-4.053460190E-1,2.826455753E0,9.905569232E-1,3.022310464E0
6.948394583E0,-2.475609512E-1,3.430831565E0,9.458806872E-1,3.567433521E0
6.958313583E0,-1.376967392E-1,4.050642271E0,9.461614267E-1,4.161956829E0
6.968232583E0,1.259561149E-1,4.695536948E0,8.942123508E-1,4.781584246E0
6.978151583E0,5.459945789E-1,5.231141317E0,7.994910387E-1,5.319975139E0
6.988070583E0,7.219652183E-1,5.701001932E0,6.355000285E-1,5.781567010E0
6.997989583E0,7.546837521E-1,6.040669613E0,4.785151521E-1,6.106407593E0
7.007909583E0,9.105744682E-1,6.237596235E0,3.074092499E-1,6.311200607E0
7.017828583E0,1.152947843E0,6.440870594E0,1.994322268E-1,6.546287188E0
7.027747583E0,1.371672007E0,6.608906708E0,1.620848179E-1,6.751696339E0
7.037666583E0,1.452194745E0,6.752342416E0,3.032611620E-1,6.913390269E0
7.047585583E0,1.569610782E0,6.701429540E0,6.620604209E-1,6.914561439E0
7.057504583E0,1.668786576E0,6.434412929E0,1.149859636E0,6.746013308E0
7.067423583E0,1.758135686E0,6.031708170E0,1.412028905E0,6.439438653E0
7.077343583E0,1.689833629E0,5.677231831E0,1.632449201E0,6.144215926E0
7.087262583E0,1.742993736E0,5.475591184E0,1.548037480E0,5.951180221E0
7.097181583E0,1.847240236E0,5.187603534E0,1.645516412E0,5.747282069E0
7.107100583E0,1.512770291E0,4.712342430E0,1.939686323E0,5.315734020E0
7.117019583E0,1.202397307E0,4.153913455E0,1.863053885E0,4.708686234E0
7.126938583E0,5.495578721E-1,3.273201156E0,1.780859574E0,3.766605963E0
7.136857375E0,-2.484603260E-1,1.740016773E0,1.589369255E0,2.369701570E0
7.146777375E0,-9.596805547E-1,-5.083066428E-1,1.164439156E0,1.592256562E0
7.156696375E0,-1.471010793E0,-3.163133168E0,7.437004153E-1,3.566843773E0
7.166615375E0,-2.056701826E0,-5.814399909E0,-1.501857340E-1,6.169264499E0
7.176534375E0,-2.498314104E0,-7.876200653E0,-1.601416712E0,8.416688516E0
7.186453375E0,-2.759378250E0,-8.703875783E0,-3.605344055E0,9.816828802E0
7.196372375E0,-2.813998845E0,-8.596871737E0,-5.418149307E0,1.054424654E1
7.206292375E0,-2.293765783E0,-7.712843481E0,-6.761453547E0,1.051030780E1
7.216211375E0,-1.878652940E0,-6.848805687E0,-7.299928315E0,1.018451912E1
7.226130375E0,-1.908693157E0,-6.942079886E0,-7.102382473E0,1.011332880E1
7.236049375E0,-2.143679890E0,-7.320654355E0,-6.873838202E0,1.026825181E1
7.245968375E0,-2.445991757E0,-7.098820934E0,-6.219988514E0,9.750096996E0
7.255887375E0,-3.110712003E0,-6.537385320E0,-5.186660378E0,8.905918362E0
7.265806375E0,-3.530296796E0,-5.725246827E0,-4.547610870E0,8.119249431E0
7.275726375E0,-4.316692630E0,-6.074546626E0,-3.779389060E0,8.355700667E0
7.285645375E0,-4.735190133E0,-7.620586697E0,-2.228578830E0,9.244562229E0
7.295564375E0,-2.685356008E0,-7.440324640E0,-6.584830213E-1,7.937453466E0
7.305483375E0,3.680725774E-1,-4.942126896E0,5.490134963E-1,4.986131917E0
7.315402375E0,1.426894574E0,-1.341651818E0,2.235368032E0,2.972024220E0
7.325321375E0,9.631510234E-1,2.546228528E0,4.155975768E0,4.968206336E0
7.335240375E0,1.810166404E-1,4.553377102E0,4.709385786E0,6.553191935E0
7.345160375E0,-3.341981953E-1,4.795075854E0,3.806292684E0,6.131256386E0
7.355079375E0,-1.215657476E0,4.248243662E0,3.056808568E0,5.373032285E0
7.364998375E0,-2.039435145E0,2.909016684E0,2.571575038E0,4.385735053E0
7.374917375E0,-2.201919912E0,1.455573705E0,2.274553148E0,3.484356200E0
7.384836375E0,-1.864670055E0,3.044265121E-1,2.195582407E0,2.896593175E0
7.394755375E0,-1.798063398E0,-6.155878472E-1,2.237801059E0,2.935938344E0
7.404674375E0,-1.897794532E0,-1.488278936E0,2.306982829E0,3.337479296E0
7.414594375E0,-1.922941798E0,-2.597599826E0,2.067511135E0,3.836643365E0
7.424513375E0,-1.572472994E0,-3.407791196E0,1.893730863E0,4.203799321E0
7.434432375E0,-1.039736538E0,-3.460622544E0,1.738454689E0,4.009885929E0
7.444351375E0,-6.893025255E-1,-2.523326154E0,1.519765169E0,3.025227102E0
7.454270375E0,-5.305968866E-1,-1.030115091E0,1.179633658E0,1.653543384E0
7.464189375E0,-3.257395401E-1,6.284920675E-1,1.004291009E0,1.228702144E0
7.474108375E0,-2.758733886E-1,2.090007713E0,9.255464101E-1,2.302362813E0
7.484028375E0,-6.184782721E-3,3.095440537E0,9.500450742E-1,3.237958618E0
7.493947375E0,8.034564011E-2,3.888724684E0,8.569866371E-1,3.982845865E0
7.503866375E0,-4.374433592E-2,4.622607551E0,6.689892983E-1,4.670970008E0
7.513785375E0,-2.709188966E-1,5.091915604E0,4.572376094E-1,5.119576916E0
7.523704375E0,-5.956600977E-1,5.447859010E0,1.041575488E-1,5.481316223E0
7.533623375E0,-8.800958566E-1,5.780007756E0,-1.363628431E-1,5.848217951E0
7.543542375E0,-1.179475052E0,6.060249014E0,-2.895044909E-1,6.180743674E0
7.553462375E0,-1.379509177E0,6.424999496E0,-4.433575255E-1,6.586366980E0
7.563381375E0,-1.471159166E0,6.733437783E0,-6.255123264E-1,6.920603972E0
7.573300375E0,-1.508161516E0,6.819109433E0,-6.578854358E-1,7.014814171E0
7.583219375E0,-1.426383381E0,6.662446153E0,-3.534612626E-1,6.822586984E0
7.593138375E0,-1.014531092E0,6.129858947E0,5.274729386E-2,6.213471359E0
7.603057375E0,-5.305256237E-1,5.566118946E0,2.732498892E-1,5.598017780E0
7.612976375E0,-1.239617027E-1,5.099043360E0,4.757123624E-1,5.122686008E0
7.622896375E0,1.251912260E-1,4.703336549E0,6.919950221E-1,4.755618219E0
7.632815375E0,2.514820209E-1,4.326689907E0,6.877167606E-1,4.388216391E0
7.642734375E0,5.084792818E-1,3.756031480E0,6.125942190E-1,3.839478524E0
7.652653375E0,5.214110570E-1,3.087703502E0,5.775365067E-1,3.184231590E0
7.662572375E0,3.711186844E-1,2.311375111E0,5.911727983E-1,2.414470803E0
7.672491375E0,3.693959485E-1,1.342734137E0,4.903779101E-1,1.476434497E0
7.682410375E0,6.944308260E-1,1.988000697E-1,1.205894673E-1,7.323233298E-1
7.692330375E0,1.287519757E0,-1.105954063E0,-5.942255565E-1,1.798317415E0
7.702249375E0,1.785095151E0,-2.597257764E0,-1.455521080E0,3.471434027E0
7.712168375E0,2.075344943E0,-3.944070919E0,-1.992475571E0,4.881875761E0
7.722087375E0,1.949171969E0,-4.672962018E0,-2.246250578E0,5.539087203E0
7.732006375E0,1.718335297E0,-4.788256246E0,-2.618248098E0,5.721476836E0
7.741925375E0,1.557252253E0,-4.527402016E0,-2.860352647E0,5.577097889E0
7.751844375E0,1.483479688E0,-4.252242572E0,-3.085478636E0,5.459162691E0
7.761764375E0,1.543499310E0,-4.093094226E0,-3.187277491E0,5.412443835E0
7.771683375E0,1.937182838E0,-4.209951416E0,-3.134495845E0,5.594768313E0
7.781602375E0,2.338198482E0,-4.347363907E0,-3.312536545E0,5.944715590E0
7.791521375E0,1.985045076E0,-4.545025524E0,-3.992668590E0,6.367029404E0
7.801440375E0,1.233358022E0,-5.143779237E0,-4.564432140E0,6.986678582E0
7.811359375E0,1.321031904E0,-6.324720333E0,-4.265998439E0,7.742477334E0
7.821278375E0,2.317141635E0,-7.030203273E0,-5.378670076E0,9.150027061E0
7.831198375E0,2.811826605E0,-5.784428251E0,-6.973274782E0,9.486439808E0
7.841117375E0,2.168868964E0,-3.665590841E0,-5.240657076E0,6.753150034E0
7.851036375E0,2.107716152E0,-3.462602996E0,-3.399558316E0,5.290471021E0
7.860955375E0,2.313937361E0,-3.912250371E0,-2.628924237E0,5.250833431E0
7.870874375E0,2.361637485E0,-3.145619003E0,-1.288862862E0,4.139253314E0
7.880793375E0,1.927400885E0,-1.977717783E0,2.857411498E-1,2.776308666E0
7.890712375E0,1.204349546E0,-8.664415848E-1,1.669241782E0,2.233281661E0
7.900632375E0,2.144071653E-1,2.550818592E-1,2.798282699E0,2.818053096E0
7.910551375E0,-2.308495358E-1,8.298391843E-1,3.565695840E0,3.668257270E0
7.920470375E0,1.012439543E-1,4.544625574E-1,4.221001776E0,4.246603649E0
7.930389375E0,6.554487549E-1,-9.396855623E-1,4.757749861E0,4.893751706E0
7.940308375E0,1.025620556E0,-2.810008121E0,5.166416148E0,5.969916162E0
7.950227375E0,1.135501944E0,-4.494428982E0,5.062459670E0,6.864237354E0
7.960146375E0,8.889631592E-1,-5.450559254E0,4.163025756E0,6.915897275E0
7.970066375E0,2.540167158E-1,-5.436165163E0,2.583608608E0,6.024238509E0
7.979985375E0,-3.538870130E-1,-4.610676307E0,1.229035467E0,4.784777968E0
7.989904375E0,-4.303695439E-1,-2.967213437E0,4.137407935E-1,3.026673912E0
7.999823375E0,-2.681661006E-2,-9.686351269E-1,6.131375715E-2,9.709441367E-1
8.009742375E0,4.735693944E-1,6.518499398E-1,-3.710416473E-2,8.065686793E-1
8.019661375E0,7.613276508E-1,2.115109225E0,3.808649696E-2,2.248278765E0
8.029580375E0,9.936759742E-1,3.211191434E0,-2.413871685E-1,3.370075686E0
8.039499375E0,1.146746724E0,4.120380258E0,-3.770775819E-1,4.293570661E0
8.049419375E0,1.143372954E0,4.613168390E0,-4.323115504E-1,4.772370227E0
8.059338375E0,9.360214777E-1,4.790841300E0,-2.451912940E-1,4.887577656E0
8.069257375E0,8.962609959E-1,4.876753855E0,-6.706756353E-2,4.958881930E0
8.079176375E0,1.215093586E0,4.853310614E0,-9.706264693E-2,5.004048110E0
8.089095375E0,1.528891650E0,4.949405510E0,1.034138560E-2,5.180176785E0
8.099014375E0,1.803073146E0,5.101942409E0,2.901645684E-1,5.418956043E0
8.108933375E0,2.042034232E0,5.315675098E0,5.524379182E-1,5.721144397E0
8.118853375E0,2.306136883E0,5.583606214E0,6.342059666E-1,6.074301843E0
8.128772375E0,2.548661262E0,5.958717377E0,5.709542960E-1,6.505995375E0
8.138691750E0,2.703815375E0,6.409600269E0,4.754920685E-1,6.972781791E0
8.148610750E0,2.761126567E0,6.855709494E0,3.938889116E-1,7.401332384E0
8.158529750E0,2.660437514E0,7.178713780E0,3.196122793E-1,7.662506855E0
8.168448750E0,2.288365879E0,7.432779393E0,3.214308000E-1,7.783710276E0
8.178367750E0,1.780090227E0,7.748695099E0,3.054755026E-1,7.956400709E0
8.188287750E0,1.287948796E0,7.810881407E0,2.464191362E-1,7.920189572E0
8.198206750E0,9.141519409E-1,7.522599642E0,1.459396322E-1,7.579345455E0
8.208125750E0,4.078669730E-1,7.119811268E0,1.755158722E-1,7.133643795E0
8.218044750E0,-2.132761677E-1,6.529034911E0,4.472055781E-1,6.547806994E0
8.227963750E0,-7.631629457E-1,5.417820109E0,7.956725876E-1,5.528859491E0
8.237882750E0,-1.319497887E0,3.729945881E0,1.153028681E0,4.121049149E0
8.247801750E0,-2.078992289E0,1.277113175E0,1.403556143E0,2.814817374E0
8.257720750E0,-3.160750428E0,-1.899867954E0,1.818954184E0,4.111986848E0
8.267640750E0,-4.312657174E0,-5.217825453E0,2.149291317E0,7.102405756E0
8.277559750E0,-5.250082203E0,-7.668237412E0,2.121553880E0,9.532377406E0
8.287478750E0,-5.437367935E0,-8.913682067E0,1.250867947E0,1.051586272E1
8.297397750E0,-4.818619960E0,-8.421518417E0,-3.613918412E-1,9.709360166E0
8.307316750E0,-3.758663019E0,-7.593967833E0,-2.280839782E0,8.774857563E0
8.317235750E0,-2.713938367E0,-7.082484983E0,-4.291867983E0,8.714768257E0
8.327154750E0,-1.401356421E0,-7.346898413E0,-6.117563422E0,9.662572035E0
8.337074750E0,7.783266762E-1,-7.990355844E0,-7.415654653E0,1.092902159E1
8.346993750E0,2.831791045E0,-8.468290880E0,-7.681877797E0,1.177888948E1
8.356912750E0,2.783959067E0,-8.104840819E0,-6.627427763E0,1.083335920E1
8.366831750E0,1.557660243E0,-7.719637361E0,-4.655526790E0,9.148389810E0
8.376750750E0,4.298025101E-1,-7.470579888E0,-2.569996290E0,7.911964042E0
8.386669750E0,-4.457107374E-1,-7.283745561E0,-1.322494000E0,7.416238793E0
8.396588750E0,-1.518355552E0,-7.155050683E0,-7.358474585E-1,7.351300928E0
8.406508750E0,-2.739293649E0,-6.658091147E0,-1.239387524E-1,7.200643598E0
8.416427750E0,-3.426509010E0,-5.657468242E0,8.724092531E-1,6.671507237E0
8.426346750E0,-2.743356586E0,-4.504042389E0,1.729454216E0,5.550082440E0
8.436265750E0,-7.108410367E-1,-2.882280875E0,2.150117090E0,3.665493353E0
8.446184750E0,1.199148448E0,-4.443252397E-1,2.605608172E0,2.902511993E0
8.456103750E0,1.698766128E0,2.198122146E0,2.825938275E0,3.962760964E0
8.466022750E0,9.208426175E-1,4.218096002E0,2.553558598E0,5.016068831E0
8.475941750E0,-8.941953939E-1,4.803723301E0,2.231888062E0,5.371840213E0
8.485861750E0,-3.624562683E0,4.008368656E0,2.204564023E0,5.836486654E0
8.495780750E0,-5.635243560E0,2.298921127E0,2.303549198E0,6.507483940E0
8.505699750E0,-5.427684946E0,6.021924609E-1,2.322159131E0,5.934207838E0
8.515618750E0,-3.835652138E0,-2.601490563E-1,2.201826357E0,4.430343572E0
8.525537750E0,-2.466930344E0,-2.111640072E-1,2.492447008E0,3.513207601E0
8.535456750E0,-1.930266167E0,1.116636926E-1,2.977613879E0,3.550293040E0
8.545375750E0,-1.932172067E0,4.870508444E-1,3.484599636E0,4.014092929E0
8.555295750E0,-1.813500047E0,8.749837822E-1,3.534054801E0,4.067422081E0
8.565214750E0,-1.950912685E0,9.738315475E-1,3.024709108E0,3.728709345E0
8.575133750E0,-2.239091539E0,8.369792193E-1,2.316025840E0,3.328369094E0
8.585052750E0,-2.437696458E0,8.668105441E-1,1.679683155E0,3.084649095E0
8.594971750E0,-2.545165212E0,1.224685870E0,1.447703206E0,3.173888153E0
8.604890750E0,-2.096331038E0,1.764753419E0,1.370891404E0,3.064033566E0
8.614809750E0,-1.152865251E0,2.541507486E0,7.148001865E-1,2.880850204E0
8.624728750E0,-1.771530926E-2,3.295354502E0,-2.505046588E-1,3.304909637E0
8.634648750E0,1.069678302E0,4.055546916E0,-1.125504228E0,4.342629644E0
8.644567750E0,1.465478450E0,4.792572661E0,-1.581340005E0,5.255189436E0
8.654486750E0,1.283699771E0,5.422594360E0,-1.561072386E0,5.786999368E0
8.664405750E0,7.757033229E-1,5.995069517E0,-1.102801829E0,6.144814564E0
8.674324750E0,3.121620130E-1,6.461812397E0,-7.460371819E-1,6.512222052E0
8.684243750E0,-3.626881689E-3,6.812924248E0,-6.601752055E-1,6.844836102E0
8.694162750E0,-1.690212967E-1,7.106367350E0,-6.179857904E-1,7.135189665E0
8.704081750E0,-2.358975101E-1,7.377356560E0,-5.070798969E-1,7.398524682E0
8.714001750E0,-3.176170266E-1,7.592865633E0,-4.185530519E-1,7.611023305E0
8.723920750E0,-3.725789534E-1,7.707706702E0,-3.610313603E-1,7.725147334E0
8.733839750E0,-3.533211852E-1,7.464559010E0,-4.074195148E-1,7.484014146E0
8.743758750E0,-1.883676137E-1,6.871183566E0,-6.340802515E-1,6.902948915E0
8.753677750E0,2.492996939E-2,6.068491250E0,-8.260197830E-1,6.124501305E0
8.763596750E0,2.176322337E-1,5.173931574E0,-9.185106017E-1,5.259333936E0
8.773515750E0,3.476312231E-1,4.155188733E0,-9.590009621E-1,4.278565614E0
8.783435750E0,4.789314008E-1,2.881033664E0,-9.205979115E-1,3.062226441E0
8.793354750E0,6.989103048E-1,1.444825353E0,-7.687090297E-1,1.779581267E0
8.803273750E0,9.461699782E-1,-2.018143094E-1,-6.480594823E-1,1.164451689E0
8.813192750E0,1.195792146E0,-2.105223922E0,-4.502528545E-1,2.462643753E0
8.823111750E0,1.431222683E0,-3.978705731E0,2.840138823E-2,4.228392638E0
8.833030750E0,1.582308011E0,-5.799821631E0,4.733818084E-1,6.030399649E0
8.842949750E0,1.367637721E0,-7.286663906E0,2.262299430E-1,7.417350187E0
8.852868750E0,1.398405477E0,-8.333996708E0,-7.048838934E-1,8.479852612E0
8.862788750E0,1.367858307E0,-8.446897087E0,-1.865778102E0,8.757981199E0
8.872707750E0,1.122335622E0,-7.979666550E0,-2.839458207E0,8.543842133E0
8.882626750E0,8.653826541E-1,-7.584690641E0,-3.403727381E0,8.358335919E0
8.892545750E0,5.751608926E-1,-7.713567367E0,-3.666780750E0,8.560094196E0
8.902464750E0,2.726527423E-2,-8.421626590E0,-3.381159468E0,9.075063480E0
8.912383750E0,-5.954158303E-1,-9.010990260E0,-2.358956244E0,9.333656306E0
8.922302750E0,-6.100397532E-1,-8.995861759E0,-1.058110317E0,9.078396044E0
8.932221750E0,-1.095009537E-1,-8.566656834E0,-4.549133778E-1,8.579425736E0
8.942141750E0,6.772679324E-1,-7.438970425E0,-4.963531798E-1,7.486209943E0
8.952060750E0,1.693629934E0,-5.902734380E0,-3.532034004E-1,6.151049354E0
8.961979750E0,2.257407942E0,-4.456165972E0,3.095621216E-1,5.004911038E0
8.971898750E0,1.884896451E0,-3.367165911E0,1.209051000E0,4.043815676E0
8.981817750E0,6.960671693E-1,-2.357189800E0,2.003837296E0,3.171153917E0
8.991736750E0,-8.829549989E-1,-8.871459907E-1,2.284548086E0,2.604956333E0
9.001655750E0,-1.395462720E0,5.252968973E-1,2.291558897E0,2.733952306E0
9.011575750E0,-5.853215261E-1,9.833853132E-1,2.248002988E0,2.522531545E0
9.021494750E0,6.744715016E-1,1.968675649E-1,2.190305003E0,2.300240129E0
9.031413750E0,2.031938722E0,-2.028586805E0,2.209085090E0,3.622705665E0
9.041332750E0,3.132215431E0,-4.519243396E0,2.146387736E0,5.902653191E0
9.051251750E0,3.109853924E0,-5.610122752E0,1.620196799E0,6.615867773E0
9.061170750E0,1.490872761E0,-4.496394231E0,8.018497324E-1,4.804500564E0
9.071089750E0,-3.338149104E-1,-2.641034113E0,1.811642826E-1,2.668204280E0
9.081008750E0,-8.519783507E-1,-1.359272402E0,2.967449884E-1,1.631424580E0
9.090928750E0,-2.916562662E-1,-2.327677149E-1,7.167451897E-1,8.080642633E-1
9.100847750E0,5.196895637E-1,6.074508619E-1,7.652753985E-1,1.106670786E0
9.110766750E0,6.700800964E-1,1.352192008E0,3.934755135E-1,1.559568384E0
9.120685750E0,4.695726398E-1,2.086552008E0,-1.233050604E-1,2.142288936E0
9.130604750E0,3.018436508E-1,2.812940499E0,-5.430380805E-1,2.880735010E0
9.140523958E0,4.120126489E-1,3.332598342E0,-7.013436967E-1,3.430429873E0
9.150442958E0,4.566100936E-1,3.654125036E0,-7.277761813E-1,3.753768870E0
9.160361958E0,3.650915207E-1,3.908346185E0,-6.834532633E-1,3.984415903E0
9.170281958E0,1.425932707E-1,4.227956747E0,-4.613925312E-1,4.255447587E0
9.180200958E0,1.077333404E-1,4.731338865E0,-2.617968017E-1,4.739800786E0
9.190119958E0,1.851957916E-1,5.176245317E0,-3.892257571E-2,5.179703470E0
9.200038958E0,3.300709382E-1,5.650058650E0,1.886428714E-1,5.662834600E0
9.209957958E0,6.132470606E-1,6.126429555E0,3.286418787E-1,6.165810291E0
9.219876958E0,9.852255781E-1,6.544272755E0,2.578724429E-1,6.623041109E0
9.229795958E0,1.327641889E0,6.882582128E0,2.206446826E-3,7.009463218E0
9.239714958E0,1.632066354E0,7.149055533E0,-2.101449837E-1,7.335993219E0
9.249634958E0,1.976801671E0,7.413056150E0,-3.780444190E-1,7.681410282E0
9.259553958E0,2.228224927E0,7.656841189E0,-5.297847815E-1,7.992050752E0
9.269472958E0,2.431127842E0,7.840122163E0,-7.477846223E-1,8.242395281E0
9.279391958E0,2.587409298E0,7.933524417E0,-9.540610881E-1,8.399150499E0
9.289310958E0,2.644357086E0,7.931481400E0,-1.133703925E0,8.437197768E0
9.299229958E0,2.688017660E0,7.820175557E0,-1.276223813E0,8.367157934E0
9.309148958E0,2.531911620E0,7.350547661E0,-1.301889289E0,7.882641885E0
9.319067958E0,2.177907444E0,6.412439092E0,-1.156189247E0,6.870184097E0
9.328987958E0,1.543635258E0,5.285363717E0,-7.545533592E-1,5.557628109E0
9.338906958E0,5.740628220E-1,3.965612646E0,-1.742014182E-1,4.010732840E0
9.348825958E0,-5.551281490E-1,1.958133704E0,5.017501599E-1,2.096236649E0
9.358744958E0,-1.747176542E0,-8.890936983E-1,1.361457506E0,2.386771882E0
9.368663958E0,-2.853525731E0,-4.569593770E0,2.303808230E0,5.859294213E0
9.378582958E0,-3.777955615E0,-8.617127661E0,3.055057327E0,9.892482652E0
9.388501958E0,-4.396379946E0,-1.176667248E1,3.154778374E0,1.295126884E1
9.398420958E0,-4.042461139E0,-1.275744459E1,1.851371440E0,1.351005036E1
9.408340958E0,-2.787466519E0,-1.119805649E1,-6.960417339E-1,1.156074880E1
9.418259958E0,-6.378898586E-1,-9.788520838E0,-3.799005884E0,1.051924376E1
9.428178958E0,1.794589129E0,-9.505731947E0,-6.345555716E0,1.156916451E1
9.438097958E0,3.227099369E0,-8.466253125E0,-7.005692915E0,1.145300596E1
9.448016958E0,1.206840314E0,-6.697414842E0,-5.873234593E0,8.989255458E0
9.457935958E0,-7.299025212E-1,-5.854887784E0,-4.840237409E0,7.631537645E0
9.467854958E0,-1.421495840E0,-5.765883222E0,-3.071631260E0,6.685879026E0
9.477773958E0,-2.975544550E0,-6.040674291E0,-1.220502041E0,6.843481313E0
9.487693958E0,-5.129309717E0,-6.265413194E0,-1.789208521E-1,8.099211896E0
9.497612958E0,-6.991601125E0,-6.477406336E0,4.829889299E-1,9.543194300E0
9.507531958E0,-8.077135541E0,-6.533480549E0,1.076029767E0,1.044434424E1
9.517450958E0,-7.842208450E0,-7.072696159E0,1.856993099E0,1.072248515E1
9.527369958E0,-2.683530799E0,-7.426478434E0,1.813313960E0,8.101976734E0
9.537288958E0,4.430043536E-1,-2.885401534E0,1.565503552E0,3.312490942E0
9.547207958E0,-6.472256693E-1,3.066824849E0,2.607685103E0,4.077295343E0
9.557126958E0,7.177249637E-1,5.299183611E0,2.577200645E0,5.936197371E0
9.567046958E0,-3.804461628E-2,6.427910240E0,2.997524818E0,7.092575871E0
9.576965958E0,-2.973286063E0,5.908706726E0,3.941137955E0,7.699728149E0
9.586884958E0,-6.004415122E0,3.960534924E0,4.788219409E0,8.640942249E0
9.596803958E0,-6.548472226E0,1.782816052E0,5.041468166E0,8.454426228E0
9.606722958E0,-4.631047714E0,2.408830655E-1,4.367940259E0,6.370520362E0
9.616641958E0,-3.247258814E0,2.166136122E-1,3.710385776E0,4.935440595E0
9.626560958E0,-3.067187961E0,2.800184798E-1,3.959852554E0,5.016620833E0
9.636479958E0,-3.516397964E0,-2.375548303E-1,4.777633317E0,5.936940884E0
9.646398958E0,-3.536114191E0,-8.356443000E-1,5.375420778E0,6.488262750E0
9.656318958E0,-3.211059287E0,-9.383553207E-1,5.236443572E0,6.213835670E0
9.666237958E0,-2.536696105E0,-5.076804060E-1,4.293873286E0,5.012974598E0
9.676156958E0,-1.483162769E0,7.933993363E-1,2.771600685E0,3.242071045E0
9.686075958E0,-2.117800114E-1,2.296348937E0,9.152573571E-1,2.481081466E0
9.695994958E0,1.137698962E0,3.175096571E0,-8.946438754E-1,3.489410384E0
9.705913958E0,2.111734358E0,3.934989608E0,-1.491846907E0,4.708415063E0
9.715832958E0,2.310775333E0,4.681253369E0,-1.094080414E0,5.333931730E0
9.725751958E0,2.027063313E0,5.221619126E0,-6.135989168E-1,5.634784433E0
9.735671958E0,1.368907590E0,5.656666589E0,-1.952386768E-1,5.823221018E0
9.745590958E0,4.808506031E-1,6.295467297E0,-8.470393538E-2,6.314372538E0
9.755509958E0,-3.174182944E-1,6.921066747E0,-1.637433806E-1,6.930276415E0
9.765428958E0,-1.012065614E0,7.452316110E0,-3.884720510E-1,7.530750477E0
9.775347958E0,-1.649051054E0,7.838854487E0,-6.139974046E-1,8.033928171E0
9.785266958E0,-2.162145982E0,8.029532189E0,-8.470851083E-1,8.358577367E0
9.795185958E0,-2.382030380E0,8.022461151E0,-1.012029215E0,8.429599919E0
9.805104958E0,-2.325482835E0,7.799012729E0,-1.051071220E0,8.205925948E0
9.815023958E0,-2.054204773E0,7.359203879E0,-8.622058618E-1,7.689020609E0
9.824943958E0,-1.741168236E0,6.682105662E0,-7.909073992E-1,6.950376782E0
9.834862958E0,-1.296504735E0,5.933256846E0,-9.251400286E-1,6.143317133E0
9.844781958E0,-6.508139594E-1,5.173678390E0,-9.806121249E-1,5.305855919E0
9.854700958E0,-9.802418500E-3,4.463200173E0,-9.208775546E-1,4.557221450E0
9.864619958E0,3.224341822E-1,3.785842924E0,-7.312722315E-1,3.869280233E0
9.874538958E0,5.250719257E-1,3.016650476E0,-6.230430472E-1,3.124750111E0
9.884457958E0,7.213628089E-1,2.094836928E0,-6.729930331E-1,2.315518447E0
9.894376958E0,9.126437978E-1,1.019655007E0,-6.375600757E-1,1.509668138E0
9.904296958E0,1.267842999E0,-3.152602333E-1,-5.812062192E-1,1.429900540E0
9.914215958E0,1.870227102E0,-2.011698292E0,-5.028237087E-1,2.792402392E0
9.924134958E0,2.530690722E0,-3.901814260E0,-3.799165513E-1,4.666142587E0
9.934053958E0,3.111744036E0,-5.703105175E0,-2.824164230E-1,6.502931541E0
9.943972958E0,3.518950566E0,-6.918070049E0,-4.487252694E-1,7.774577845E0
9.953891958E0,3.589127387E0,-7.254503635E0,-1.003828422E0,8.155815710E0
9.963810958E0,3.498759838E0,-6.770667005E0,-2.004198069E0,7.880359256E0
9.973729958E0,3.180765447E0,-5.503285351E0,-2.956542853E0,7.010318404E0
9.983649958E0,2.543782053E0,-4.324662092E0,-3.507980313E0,6.122046653E0
9.993568958E0,2.181678898E0,-3.890830851E0,-3.971593763E0,5.972591108E0
1.000348796E1,2.243925432E0,-4.029287070E0,-4.347293741E0,6.337926988E0
1.001340696E1,2.269443851E0,-4.632355444E0,-4.426095496E0,6.797015058E0
1.002332596E1,1.776553392E0,-5.614045064E0,-3.913588214E0,7.070347704E0
1.003324496E1,1.579177997E0,-6.653316895E0,-2.997736487E0,7.466381513E0
1.004316396E1,2.469253150E0,-7.147032981E0,-2.609345713E0,7.999123489E0
1.005308296E1,3.197967371E0,-6.147182493E0,-3.159960469E0,7.615786110E0
1.006300196E1,3.166578348E0,-4.242098238E0,-3.739690851E0,6.481350442E0
1.007292196E1,2.514407396E0,-2.753423445E0,-3.267669982E0,4.957948399E0
1.008284096E1,1.865259747E0,-1.635520012E0,-2.281109046E0,3.370100609E0
1.009275996E1,1.213806540E0,-1.101528890E0,-9.420542693E-1,1.890544488E0
1.010267896E1,6.122479177E-1,-1.235266407E0,1.968772128E-1,1.392656183E0
1.011259796E1,-2.241595902E-1,-1.368566551E0,1.197136421E0,1.832036445E0
1.012251696E1,-1.073561219E0,-1.020190027E0,2.216040353E0,2.665362307E0
1.013243596E1,-9.801308991E-1,-7.150331980E-1,2.696082433E0,2.956482629E0
1.014235400E1,-2.589992014E-1,-7.746291894E-1,2.865676245E0,2.979803904E0
1.015227400E1,3.248541985E-1,-1.568295743E0,2.881307314E0,3.296515376E0
1.016219300E1,9.006964745E-1,-2.773373560E0,2.718265599E0,3.986454930E0
1.017211200E1,1.256006627E0,-3.804483263E0,2.431044227E0,4.686322820E0
1.018203100E1,1.041711362E0,-4.359199256E0,2.247508606E0,5.013888277E0
1.019195000E1,2.032212956E-1,-4.050013111E0,2.097334274E0,4.565382366E0
1.020186900E1,-8.059145705E-1,-3.107075912E0,1.928267881E0,3.744547508E0
1.021178800E1,-1.061127554E0,-1.929565378E0,1.793407407E0,2.839986683E0
1.022170700E1,-7.664530277E-1,-6.579111636E-1,1.457630463E0,1.773410248E0
1.023162600E1,-7.186502125E-1,7.055379045E-1,1.159175712E0,1.535555337E0
1.024154600E1,-6.454356904E-1,2.079834727E0,7.952435482E-1,2.318342516E0
1.025146500E1,-6.600969990E-1,3.404992719E0,7.437085283E-1,3.547225090E0
1.026138400E1,-4.502385288E-1,4.369542396E0,9.071887842E-1,4.485377016E0
1.027130300E1,-1.012917553E-1,4.999928377E0,1.349947847E0,5.179952025E0
1.028122200E1,2.550342044E-1,5.406601056E0,1.773672323E0,5.695813457E0
1.029114100E1,5.762439796E-1,5.693358452E0,1.950652192E0,6.045777994E0
1.030106000E1,6.890915872E-1,5.751041819E0,1.979696189E0,6.121153994E0
1.031097900E1,7.114120173E-1,5.756993700E0,2.011733376E0,6.139719431E0
1.032089800E1,6.950278267E-1,5.765400242E0,1.891058539E0,6.107291218E0
1.033081800E1,8.596012196E-1,5.982540103E0,2.148049514E0,6.414344632E0
1.034073700E1,1.154019053E0,5.936287458E0,2.335749815E0,6.482823147E0
1.035065600E1,1.442600049E0,5.716908113E0,2.131752301E0,6.269649204E0
1.036057500E1,1.428763052E0,5.798614181E0,2.158039190E0,6.349993970E0
1.037049400E1,1.465190328E0,5.804146231E0,2.219141132E0,6.384315432E0
1.038041300E1,1.724761387E0,5.739619868E0,2.148773400E0,6.366731123E0
1.039033200E1,1.981448307E0,5.704175216E0,1.863642407E0,6.319566070E0
1.040025100E1,2.258169542E0,5.459280961E0,1.359352363E0,6.062253470E0
1.041017000E1,2.576348121E0,5.173530455E0,6.822415010E-1,5.819659825E0
1.042009000E1,2.601577687E0,4.855988638E0,2.028492665E-1,5.512710762E0
1.043000900E1,2.159469273E0,4.692719175E0,-2.940694121E-1,5.174108388E0
1.043992800E1,1.325852495E0,4.633512023E0,-2.663582877E-1,4.826827658E0
1.044984700E1,7.295860407E-1,4.160334867E0,-3.397606516E-1,4.237466141E0
1.045976600E1,3.387686715E-2,3.088931417E0,-4.584556941E-1,3.122951579E0
1.046968500E1,-9.547519366E-1,1.316892952E0,-5.408359460E-1,1.714135884E0
1.047960400E1,-1.974548300E0,-1.130722868E0,-7.830789276E-1,2.406364021E0
1.048952300E1,-3.001229614E0,-4.308181130E0,-1.042020534E0,5.352906747E0
1.049944200E1,-3.689114774E0,-7.579481941E0,-1.509734855E0,8.563726621E0
1.050936200E1,-4.225945597E0,-9.856060857E0,-2.292758600E0,1.096618866E1
1.051928100E1,-4.565046975E0,-1.021117864E1,-3.274415038E0,1.165459638E1
1.052920000E1,-4.238648673E0,-8.893450116E0,-4.150075343E0,1.069030977E1
1.053911900E1,-3.012945095E0,-7.010666556E0,-5.265884303E0,9.271290158E0
1.054903800E1,-1.184076519E0,-5.035889338E0,-6.477110467E0,8.289461902E0
1.055895700E1,3.480783159E-1,-3.458332189E0,-7.503003284E0,8.268995001E0
1.056887600E1,4.543288024E-1,-2.901341629E0,-8.059569336E0,8.577928409E0
1.057879500E1,-2.631995487E-1,-3.413880486E0,-7.790314411E0,8.509574173E0
1.058871500E1,-1.514687009E0,-4.122574718E0,-6.876088210E0,8.159073974E0
1.059863400E1,-2.362483284E0,-4.361410089E0,-5.569844792E0,7.458310548E0
1.060855300E1,-2.712461653E0,-4.378828359E0,-4.654868101E0,6.942577551E0
1.061847200E1,-2.713968773E0,-4.148907069E0,-3.847125545E0,6.275303285E0
1.062839100E1,-2.972190295E0,-4.363204014E0,-2.442660159E0,5.817048485E0
1.063831000E1,-2.747640841E0,-4.703106753E0,-8.200800352E-1,5.508291440E0
1.064822900E1,-1.805623994E0,-4.728474314E0,8.947081947E-1,5.139965963E0
1.065814800E1,-3.439653844E-2,-3.236078353E0,2.444380703E0,4.055660642E0
1.066806700E1,9.290749124E-1,-7.541785526E-1,3.767997222E0,3.953450208E0
1.067798700E1,6.621784616E-1,9.632545191E-1,4.058516424E0,4.223493240E0
1.068790600E1,-4.495883185E-1,2.052105476E0,3.853271846E0,4.388732215E0
1.069782500E1,-2.544718485E0,1.892034439E0,3.766544774E0,4.923641540E0
1.070774400E1,-4.534324242E0,8.075133455E-1,3.541426971E0,5.809808872E0
1.071766300E1,-4.840930889E0,-2.935734951E-1,3.299032985E0,5.865527760E0
1.072758200E1,-3.581145937E0,-8.729173762E-1,3.063235828E0,4.792703278E0
1.073750100E1,-2.018114881E0,-8.385860342E-1,2.693855520E0,3.468843002E0
1.074742000E1,-1.759144038E0,-9.722206396E-1,3.003721697E0,3.614158928E0
1.075733900E1,-2.241875398E0,-1.613803453E0,3.774639659E0,4.677421452E0
1.076725900E1,-2.024327986E0,-2.155516993E0,4.198077475E0,5.134979239E0
1.077717800E1,-1.361894732E0,-2.076211208E0,3.830988107E0,4.565290803E0
1.078709700E1,-8.727127236E-1,-1.543377249E0,2.789222438E0,3.305057131E0
1.079701600E1,-9.361848342E-1,-3.460545945E-1,2.238366777E0,2.450812448E0
1.080693500E1,-1.222579557E0,5.094076735E-1,1.990817885E0,2.391140482E0
1.081685400E1,-1.105774992E0,1.337657585E0,1.830578449E0,2.522515333E0
1.082677300E1,-6.261566895E-1,2.379517393E0,1.660487038E0,2.968398967E0
1.083669200E1,-4.479702477E-1,3.468561308E0,1.620355259E0,3.854496862E0
1.084661100E1,-4.800837408E-1,4.695396030E0,1.123231416E0,4.851687654E0
1.085653100E1,-4.350468048E-1,5.583657085E0,4.619236777E-1,5.619596573E0
1.086645000E1,-3.323463821E-1,6.097846026E0,-1.715801845E-1,6.109306019E0
1.087636900E1,-2.815815867E-1,6.325621389E0,-8.566017441E-1,6.389564984E0
1.088628800E1,-2.357587849E-1,6.262543380E0,-1.385896383E0,6.418390809E0
1.089620700E1,-1.377567463E-1,6.283167095E0,-1.585763131E0,6.481651824E0
1.090612600E1,-1.892939588E-1,6.420123503E0,-1.742794200E0,6.655159624E0
1.091604500E1,-4.484102507E-1,6.692356415E0,-1.691646851E0,6.917396563E0
1.092596400E1,-8.372781582E-1,7.044596779E0,-1.641832082E0,7.281688752E0
1.093588300E1,-9.697405431E-1,7.286730564E0,-1.704160477E0,7.545926184E0
1.094580200E1,-9.293731204E-1,7.337736411E0,-1.819544753E0,7.616879489E0
1.095572200E1,-7.281601971E-1,7.204490061E0,-1.784221138E0,7.457770403E0
1.096564100E1,-5.307466850E-1,6.769989898E0,-1.541734474E0,6.963576699E0
1.097556000E1,-2.040191665E-1,6.095700683E0,-1.018797513E0,6.183618602E0
1.098547900E1,1.147963292E-1,5.250465195E0,-3.168749419E-1,5.261271015E0
1.099539800E1,3.524238203E-1,4.250871985E0,2.096279436E-1,4.270604062E0
1.100531700E1,5.851617144E-1,3.138615208E0,4.760838068E-1,3.227998675E0
1.101523600E1,5.457291153E-1,2.039060923E0,4.022425362E-1,2.148811014E0
1.102515500E1,8.582000805E-1,7.685919392E-1,4.285015047E-2,1.152856055E0
1.103507400E1,1.266136343E0,-9.652267849E-1,1.418777177E-1,1.598403351E0
1.104499400E1,1.437144597E0,-3.140927782E0,6.909356529E-1,3.522528069E0
1.105491300E1,1.499518016E0,-5.166832470E0,1.288533372E0,5.532181333E0
1.106483200E1,1.627681235E0,-6.614939865E0,1.465732073E0,6.968152275E0
1.107475100E1,1.897270036E0,-7.468960209E0,5.831355080E-1,7.728198187E0
1.108467000E1,2.012770087E0,-7.660064174E0,-7.931818199E-1,7.959708787E0
1.109458900E1,2.128777384E0,-7.589669545E0,-1.924003799E0,8.113973599E0
1.110450800E1,2.085496147E0,-7.143918754E0,-2.931169153E0,7.998538738E0
1.111442700E1,2.123114063E0,-6.986326352E0,-3.651663358E0,8.164007257E0
1.112434600E1,2.146037780E0,-7.219637273E0,-3.822692662E0,8.446396847E0
1.113426600E1,1.447572667E0,-7.775263678E0,-3.337442175E0,8.584212961E0
1.114418571E1,8.944434620E-1,-8.225852455E0,-2.345462771E0,8.600341466E0
1.115410471E1,1.060415509E0,-8.260093750E0,-1.197204541E0,8.413496807E0
1.116402371E1,1.450357404E0,-7.567152502E0,-3.012413876E-1,7.710776871E0
1.117394271E1,1.715960012E0,-6.743670411E0,-5.463053584E-2,6.958778188E0
1.118386171E1,1.635017883E0,-5.759708562E0,-2.354352877E-1,5.991907540E0
1.119378071E1,1.594446392E0,-4.832440147E0,-2.998551589E-1,5.097514118E0
1.120369971E1,1.469078142E0,-3.836561088E0,6.679632582E-2,4.108753256E0
1.121361871E1,8.629160061E-1,-2.625010403E0,6.078624694E-1,2.829275602E0
1.122353771E1,4.368053914E-1,-1.612802410E0,1.168561370E0,2.038986572E0
1.123345771E1,3.172459843E-1,-6.381428969E-1,1.943548994E0,2.070085521E0
1.124337671E1,6.524296913E-1,1.482912362E-1,1.933110545E0,2.045622441E0
1.125329571E1,8.886721140E-1,4.260187769E-1,1.025600968E0,1.422352794E0
1.126321471E1,7.297018155E-1,2.320175171E-3,3.425795943E-1,8.061208974E-1
1.127313371E1,5.239894599E-1,-1.116116524E0,4.602641648E-1,1.316101877E0
1.128305271E1,3.619490808E-1,-2.333805615E0,1.252058879E0,2.673070748E0
1.129297171E1,-3.361918766E-2,-2.663258210E0,2.253203063E0,3.488695829E0
1.130289071E1,-7.869569472E-1,-2.092725499E0,2.738863001E0,3.535558200E0
1.131280971E1,-2.280327566E0,-1.346944132E0,3.088854526E0,4.068805056E0
1.132272971E1,-3.158416219E0,-1.117450274E0,3.420234656E0,4.787723178E0
1.133264871E1,-3.545946284E0,-8.415844864E-1,3.349731853E0,4.950020503E0
1.134256771E1,-3.561527359E0,1.535607469E-1,2.717694911E0,4.482624640E0
1.135248671E1,-3.073788298E0,1.635168010E0,1.765458885E0,3.903689792E0
1.136240571E1,-2.085658115E0,3.004730342E0,1.100649907E0,3.819660249E0
1.137232471E1,-9.414856276E-1,3.761658840E0,1.082102101E0,4.025843685E0
1.138224371E1,-4.190202445E-2,4.121920415E0,1.191477632E0,4.290874343E0
1.139216271E1,6.802647766E-1,4.336140177E0,1.323490950E0,4.584375649E0
1.140208171E1,1.247955742E0,4.843053428E0,1.241539592E0,5.153055462E0
1.141200071E1,1.733345831E0,5.407360024E0,8.921974003E-1,5.748047182E0
1.142192071E1,2.153063794E0,5.804616932E0,4.010790865E-1,6.204041092E0
1.143183971E1,2.474664748E0,6.146574968E0,-1.139629640E-1,6.627015694E0
1.144175871E1,2.710287951E0,6.409131323E0,-4.832600945E-1,6.975397150E0
1.145167771E1,2.842282412E0,6.694793535E0,-7.649907853E-1,7.313278382E0
1.146159671E1,2.824189957E0,6.909536038E0,-9.546691985E-1,7.525232917E0
1.147151571E1,2.676684879E0,7.078943324E0,-1.040282961E0,7.639258417E0
1.148143471E1,2.520746362E0,7.240612990E0,-1.104298131E0,7.745973990E0
1.149135371E1,2.274997244E0,7.304266364E0,-1.096533321E0,7.728538342E0
1.150127271E1,1.832113051E0,7.254220630E0,-8.163856182E-1,7.526409546E0
1.151119171E1,1.503692928E0,7.039496838E0,-4.431715840E-1,7.211935191E0
1.152111171E1,1.304655607E0,6.611946090E0,-3.326653478E-1,6.747638371E0
1.153103071E1,1.192737122E0,6.057769795E0,-6.518668967E-1,6.208391674E0
1.154094971E1,1.035222269E0,5.587093493E0,-1.128360886E0,5.793142251E0
1.155086871E1,8.099023716E-1,5.025031643E0,-1.403568569E0,5.279856967E0
1.156078771E1,4.202466980E-1,4.294991566E0,-1.610062990E0,4.606068027E0
1.157070671E1,2.446153432E-2,3.296891735E0,-1.630908898E0,3.678309029E0
1.158062571E1,-3.859649842E-1,1.974902349E0,-1.504207629E0,2.512339318E0
1.159054471E1,-7.122397638E-1,2.351603955E-1,-1.200069969E0,1.415186851E0
1.160046371E1,-9.910822224E-1,-1.944733640E0,-6.844373497E-1,2.287506806E0
1.161038371E1,-1.183398168E0,-4.496119412E0,1.758754760E-2,4.649282774E0
1.162030271E1,-1.468396356E0,-7.057285237E0,7.482062066E-1,7.247156360E0
1.163022171E1,-1.659118205E0,-9.257172657E0,1.195322907E0,9.480333099E0
1.164014071E1,-1.912875085E0,-1.037031295E1,9.934650359E-1,1.059195235E1
1.165005971E1,-2.267658988E0,-1.002501031E1,-2.096811533E-2,1.027830475E1
1.165997871E1,-2.371457299E0,-8.382587655E0,-1.694708453E0,8.874887169E0
1.166989771E1,-2.199458819E0,-6.867640738E0,-3.406446629E0,7.975336171E0
1.167981671E1,-1.233130857E0,-6.678755207E0,-4.772348312E0,8.300704261E0
1.168973571E1,6.073827419E-1,-7.096651032E0,-5.302327659E0,8.879529732E0
1.169965471E1,7.962614022E-1,-7.542539817E0,-4.801944286E0,8.976781608E0
1.170957471E1,-3.782747993E-1,-7.681403587E0,-3.678110022E0,8.524995380E0
1.171949371E1,-1.285655811E0,-7.413609881E0,-2.884015452E0,8.058043650E0
1.172941271E1,-2.384852977E0,-6.806225093E0,-1.902509142E0,7.458670443E0
1.173933171E1,-3.617371193E0,-6.321477467E0,-8.775537796E-1,7.335976577E0
1.174925071E1,-4.308190778E0,-6.334638380E0,1.608048624E-1,7.662506730E0
1.175916971E1,-4.001607521E0,-7.027412982E0,9.099571484E-1,8.137900096E0
1.176908871E1,-8.931445031E-1,-7.895195333E0,6.189494115E-1,7.969624510E0
1.177900771E1,1.499384260E0,-6.248056903E0,7.058489764E-1,6.464100170E0
1.178892671E1,-2.643794291E0,-9.471086025E-2,1.828165303E0,3.215712483E0
1.179884571E1,-3.186290481E0,4.624050059E0,1.772044312E0,5.888499556E0
1.180876571E1,-2.528789207E0,6.067964416E0,1.682883336E0,6.785798651E0
1.181868471E1,-3.406564743E0,6.699316356E0,2.181090083E0,7.825770054E0
1.182860371E1,-5.598707818E0,5.991126739E0,3.851833723E0,9.059566870E0
1.183852271E1,-7.043169474E0,4.363251961E0,5.851190590E0,1.014300918E1
1.184844171E1,-5.954496272E0,2.719979126E0,6.609934064E0,9.302985576E0
1.185836071E1,-3.591469197E0,1.711533231E0,5.900185579E0,7.116191879E0
1.186827971E1,-1.923123500E0,1.362389553E0,4.836709784E0,5.380359730E0
1.187819871E1,-1.581565999E0,1.034328595E0,4.527326879E0,4.905902091E0
1.188811771E1,-1.598090231E0,4.214140946E-1,4.632241423E0,4.918245910E0
1.189803671E1,-1.387223116E0,-2.462122178E-1,4.691990904E0,4.898957754E0
1.190795571E1,-7.250317906E-1,-2.408509058E-1,4.344449947E0,4.411113873E0
1.191787571E1,-1.234293868E-1,4.198815393E-1,3.385522075E0,3.413692289E0
1.192779471E1,1.565808338E-1,1.250562138E0,1.960885988E0,2.330986289E0
1.193771371E1,6.361337205E-1,1.960056853E0,3.822234240E-1,2.095849165E0
1.194763271E1,1.222152491E0,2.640019621E0,-8.927169254E-1,3.043074731E0
1.195755171E1,1.592147998E0,3.243294986E0,-1.518108799E0,3.918998844E0
1.196747071E1,1.594000834E0,3.835232016E0,-1.445973746E0,4.397804378E0
1.197738971E1,1.247390170E0,4.555106708E0,-1.112519317E0,4.852079821E0
1.198730871E1,7.019940533E-1,5.315599669E0,-7.776957616E-1,5.417859927E0
1.199722771E1,1.961391480E-1,6.003783038E0,-5.202878800E-1,6.029475998E0
1.200714771E1,-2.259174094E-1,6.518330414E0,-3.363183957E-1,6.530909594E0
1.201706671E1,-6.084564368E-1,6.869846892E0,-2.722130316E-1,6.902109496E0
1.202698571E1,-8.298387457E-1,7.148947359E0,-3.358666983E-1,7.204782240E0
1.203690471E1,-1.042892061E0,7.320599391E0,-4.943513855E-1,7.411017649E0
1.204682371E1,-1.201847888E0,7.232850811E0,-5.545765373E-1,7.352967043E0
1.205674271E1,-1.266414963E0,6.902977216E0,-7.420017260E-1,7.057298907E0
1.206666171E1,-1.260166774E0,6.455183408E0,-8.880967480E-1,6.636725772E0
1.207658071E1,-1.143062248E0,5.911864808E0,-9.288439474E-1,6.092576457E0
1.208649971E1,-7.595671273E-1,5.267524447E0,-1.051396325E0,5.424867763E0
1.209641871E1,-3.585745065E-1,4.587101503E0,-1.347778530E0,4.794432484E0
1.210633771E1,7.943150103E-3,3.895926699E0,-1.641926807E0,4.227792755E0
1.211625771E1,2.460537583E-1,3.228101581E0,-1.837309763E0,3.722484310E0
1.212617671E1,3.021138652E-1,2.578732030E0,-1.882662230E0,3.207109094E0
1.213609571E1,3.463750219E-1,1.784681314E0,-1.740339539E0,2.516713087E0
1.214601471E1,4.053118859E-1,8.974698347E-1,-1.446942045E0,1.750248871E0
1.215593371E1,6.906962825E-1,-2.023651171E-1,-1.315122123E0,1.499186177E0
1.216585271E1,1.063223049E0,-1.660653684E0,-1.205306443E0,2.311055502E0
1.217577171E1,1.170669876E0,-3.276924663E0,-8.494717956E-1,3.581941587E0
1.218569071E1,1.121118013E0,-4.849726855E0,-3.627843556E-1,4.990828454E0
1.219560971E1,1.535809490E0,-6.457573165E0,-1.228096551E-1,6.638828525E0
1.220552871E1,2.215956446E0,-7.640316373E0,-5.660490668E-1,7.975293649E0
1.221544871E1,2.352010337E0,-7.908648022E0,-1.393601697E0,8.367842724E0
1.222536771E1,2.074767530E0,-7.228409266E0,-2.109468416E0,7.810532492E0
1.223528671E1,1.880100565E0,-6.345183833E0,-2.869960207E0,7.213376990E0
1.224520571E1,1.701051074E0,-5.930480588E0,-3.406701275E0,7.047679642E0
1.225512471E1,1.261881178E0,-6.206208381E0,-3.537414612E0,7.254148379E0
1.226504371E1,5.958026236E-1,-7.262264645E0,-2.980334004E0,7.872601813E0
1.227496271E1,1.009663577E-1,-8.236120750E0,-1.941525857E0,8.462470199E0
1.228488171E1,4.297042769E-1,-8.519393790E0,-1.123279363E0,8.603863832E0
1.229480071E1,9.058547419E-1,-7.637272312E0,-8.280814382E-1,7.735258241E0
1.230471971E1,1.038170654E0,-6.065834275E0,-9.721680146E-1,6.230349461E0
1.231463871E1,9.662810379E-1,-4.725024456E0,-1.197022693E0,4.969146656E0
1.232455871E1,1.099382670E0,-3.501704496E0,-1.142703813E0,3.844001644E0
1.233447771E1,1.385277894E0,-2.492454609E0,-3.310857224E-1,2.870704195E0
1.234439671E1,1.185695613E0,-1.768948796E0,7.472648048E-1,2.256869207E0
1.235431571E1,3.592164577E-1,-9.668920720E-1,1.637841357E0,1.935572539E0
1.236423471E1,-3.228564242E-1,4.941481948E-3,2.511395495E0,2.532067934E0
1.237415371E1,-1.188450967E-1,7.510614020E-1,2.909720689E0,3.007439422E0
1.238407271E1,2.791496567E-1,8.299374175E-1,2.610570120E0,2.753506310E0
1.239399171E1,5.060295177E-1,6.094786763E-2,2.447170848E0,2.499685115E0
1.240391071E1,8.027086884E-1,-1.336298107E0,2.504661841E0,2.950146574E0
1.241382971E1,1.244147158E0,-2.915022944E0,2.552990248E0,4.069769050E0
1.242374971E1,1.252085630E0,-4.014624592E0,2.437035284E0,4.860459856E0
1.243366871E1,5.087887457E-1,-4.123469927E0,1.968424804E0,4.597452167E0
1.244358771E1,-5.857790342E-1,-3.237373511E0,1.429456531E0,3.587069877E0
1.245350671E1,-9.203035042E-1,-2.112248767E0,1.013308366E0,2.517011569E0
1.246342571E1,-7.150118557E-1,-7.702917248E-1,5.094526970E-1,1.167961192E0
1.247334471E1,-6.939478460E-1,7.195402318E-1,-1.189177483E-1,1.006699155E0
1.248326371E1,-7.132680698E-1,1.894783800E0,-7.921442315E-1,2.174039897E0
1.249318271E1,-7.197978017E-1,2.634623811E0,-1.235803181E0,2.997759330E0
1.250310171E1,-6.919929756E-1,3.039072794E0,-1.435573304E0,3.431572298E0
1.251302071E1,-6.691327013E-1,3.189880672E0,-1.401593379E0,3.547892511E0
1.252293971E1,-3.133755295E-1,3.538032078E0,-1.281515543E0,3.775997523E0
1.253285971E1,3.442723632E-2,4.212116055E0,-1.325955844E0,4.416023754E0
1.254277871E1,2.111770172E-1,4.960381318E0,-1.339244519E0,5.142329670E0
1.255269771E1,3.967177945E-1,5.643347216E0,-1.167257734E0,5.776438646E0
1.256261671E1,5.828201969E-1,6.207079031E0,-6.254471299E-1,6.265675829E0
1.257253571E1,7.303039326E-1,6.612036138E0,-3.127471000E-2,6.652318680E0
1.258245471E1,1.077043967E0,6.795934578E0,2.835800189E-1,6.886593361E0
1.259237371E1,1.440415675E0,6.998680349E0,4.907465771E-1,7.162203303E0
1.260229271E1,1.691245439E0,7.232639726E0,4.489819622E-1,7.441301859E0
1.261221171E1,1.842017064E0,7.430621186E0,2.888977692E-1,7.660980355E0
1.262213071E1,1.829140326E0,7.556135178E0,1.237481332E-1,7.775361520E0
1.263204971E1,1.785767435E0,7.662428203E0,-5.620402157E-2,7.867968619E0
1.264196971E1,1.873285781E0,7.674296297E0,-2.897038078E-1,7.904932104E0
1.265188871E1,1.996682643E0,7.426743897E0,-6.746380010E-1,7.720000189E0
1.266180771E1,2.045163223E0,7.040732939E0,-1.132438149E0,7.418694568E0
1.267172671E1,1.885089409E0,6.532171943E0,-1.483644141E0,6.958737838E0
1.268164571E1,1.574910552E0,5.769635380E0,-1.564233098E0,6.181897836E0
1.269156471E1,1.093260489E0,4.720585250E0,-1.314114940E0,5.020561889E0
1.270148371E1,4.971304210E-1,3.437871028E0,-8.820840561E-1,3.583876133E0
1.271140271E1,7.773142308E-4,1.564942365E0,-1.839279690E-1,1.575714031E0
1.272132171E1,-6.037185842E-1,-7.964591843E-1,7.209634441E-1,1.232319621E0
1.273124071E1,-1.510560044E0,-3.700935506E0,1.826154738E0,4.394719148E0
1.274115971E1,-2.533213503E0,-6.892698981E0,2.920777189E0,7.903000018E0
1.275107971E1,-3.408009882E0,-9.519969333E0,3.245467519E0,1.061967075E1
1.276099871E1,-3.458353824E0,-1.076632615E1,2.353369229E0,1.155042583E1
1.277091771E1,-2.467158677E0,-1.072228492E1,3.192287385E-2,1.100251267E1
1.278083671E1,-1.219319734E0,-9.714146594E0,-2.728604061E0,1.016349668E1
1.279075571E1,-3.470113452E-1,-8.813960727E0,-4.652049159E0,9.972355888E0
1.280067471E1,1.213394165E0,-9.028348889E0,-6.049228767E0,1.093510758E1
1.281059371E1,2.355415609E0,-8.899913043E0,-6.578335710E0,1.131507559E1
1.282051271E1,1.172615245E0,-8.508496919E0,-5.506977868E0,1.020276196E1
1.283043171E1,1.473108043E-1,-7.978553824E0,-4.088213848E0,8.966187265E0
1.284035071E1,-1.004588487E0,-7.969385975E0,-3.008773692E0,8.577472237E0
1.285026971E1,-2.915320567E0,-8.343583803E0,-1.821057720E0,9.023898044E0
1.286018971E1,-4.626567285E0,-8.821024749E0,1.910378909E-1,9.962534714E0
1.287010871E1,-5.768641938E0,-8.758768274E0,1.550145255E0,1.060170749E1
1.288002771E1,-5.102503742E0,-9.122431174E0,1.734799887E0,1.059546250E1
1.288994671E1,2.052840471E-2,-9.446140049E0,2.092344553E0,9.675117000E0
1.289986571E1,3.116596348E0,-4.613630320E0,1.952089437E0,5.899950059E0
1.290978471E1,-2.233259234E0,4.114257054E0,1.902493354E0,5.053121696E0
1.291970371E1,-4.133409316E0,8.924025791E0,2.276941882E0,1.009493800E1
1.292962271E1,-2.710170129E0,9.722420404E0,2.408930057E0,1.037658059E1
1.293954171E1,-3.044089120E0,9.070172269E0,3.064653777E0,1.004622349E1
1.294946071E1,-5.102506081E0,7.341351745E0,4.715232124E0,1.010764205E1
1.295937971E1,-6.263685926E0,5.476480545E0,5.828579407E0,1.015863861E1
1.296929971E1,-3.731704724E0,3.623707820E0,4.818672878E0,7.090591429E0
1.297921871E1,-1.625676225E0,2.487928864E0,3.331757512E0,4.464663631E0
1.298913771E1,-1.019307390E0,1.862894840E0,2.891534679E0,3.587525267E0
1.299905671E1,-1.190880193E0,1.067360685E0,3.104267786E0,3.491981236E0
1.300897571E1,-1.946443366E0,-1.787844658E-2,3.567987948E0,4.064418705E0
1.301889471E1,-2.621908163E0,-1.104381747E0,4.098932963E0,4.989520307E0
1.302881371E1,-2.934457043E0,-1.863029326E0,4.500173579E0,5.686253481E0
1.303873271E1,-2.600263525E0,-2.210986020E0,4.281665469E0,5.475626792E0
1.304865171E1,-1.776377683E0,-1.418694731E0,2.962272540E0,3.734068962E0
1.305857071E1,-6.435737908E-1,1.727209032E-1,4.014060920E-1,7.779116822E-1
1.306848971E1,8.187812224E-1,1.441973081E0,-2.027247208E0,2.619049503E0
1.307840971E1,2.042374979E0,2.343206769E0,-2.741854437E0,4.144837665E0
1.308832871E1,2.542222308E0,2.925083079E0,-2.021635051E0,4.371042617E0
1.309824771E1,2.418951454E0,3.317393242E0,-1.333964776E0,4.316930169E0
1.310816671E1,1.781297531E0,3.747854733E0,-8.279631051E-1,4.231425162E0
1.311808571E1,6.459617937E-1,4.566521058E0,-5.815085202E-1,4.648497969E0
1.312800471E1,-5.897033930E-1,5.436204339E0,-5.221277064E-1,5.492966872E0
1.313792371E1,-1.607099621E0,6.187465716E0,-6.560836163E-1,6.426347866E0
1.314784233E1,-2.474461557E0,6.768798820E0,-9.446697289E-1,7.268562331E0
1.315776133E1,-3.069418089E0,7.103344924E0,-1.229601770E0,7.835225398E0
1.316768033E1,-3.376468247E0,7.219850112E0,-1.308908141E0,8.077129068E0
1.317759933E1,-3.495293609E0,7.067669308E0,-1.197412702E0,7.975137869E0
1.318751833E1,-3.444583339E0,6.697939337E0,-9.842080164E-1,7.595802206E0
1.319743833E1,-3.211335860E0,6.162575873E0,-7.020406848E-1,6.984474248E0
1.320735733E1,-2.717984933E0,5.553703553E0,-4.714685994E-1,6.201076349E0
1.321727633E1,-2.097879527E0,5.031690452E0,-5.043100709E-1,5.474790952E0
1.322719533E1,-1.522856446E0,4.471355284E0,-7.787602472E-1,4.787335100E0
1.323711433E1,-1.088236415E0,3.951752990E0,-1.026484847E0,4.225432680E0
1.324703333E1,-7.970634940E-1,3.424081539E0,-1.162841185E0,3.702950745E0
1.325695233E1,-5.589800754E-1,2.820824885E0,-1.245383844E0,3.133766531E0
1.326687133E1,-2.673779690E-1,2.097600322E0,-1.260567893E0,2.461798023E0
1.327679033E1,2.425311032E-1,1.145864233E0,-1.161792926E0,1.649723910E0
1.328670933E1,9.124448463E-1,2.748191357E-3,-8.692450324E-1,1.260218265E0
1.329662833E1,1.774637260E0,-1.282808948E0,-4.974264362E-1,2.245522046E0
1.330654833E1,2.796052279E0,-2.788109128E0,-1.571890904E-1,3.951729908E0
1.331646733E1,3.942003635E0,-4.410553012E0,8.970505893E-3,5.915441742E0
1.332638633E1,4.847725646E0,-5.816098525E0,-6.849194527E-2,7.571798804E0
1.333630533E1,5.264656388E0,-6.447213069E0,-4.768990548E-1,8.337301478E0
1.334622433E1,4.845136206E0,-6.179984204E0,-1.405602961E0,7.977673176E0
1.335614333E1,3.944698325E0,-5.730239180E0,-2.395802473E0,7.357727599E0
1.336606233E1,2.917565021E0,-5.361682745E0,-3.230001342E0,6.905992773E0
1.337598133E1,2.214035928E0,-5.644067008E0,-3.847420537E0,7.180535654E0
1.338590033E1,1.999912060E0,-6.835244824E0,-3.872326167E0,8.106486909E0
1.339581933E1,2.197305290E0,-8.198363525E0,-2.838945991E0,8.949912254E0
1.340573833E1,2.987413813E0,-8.797265757E0,-1.822979407E0,9.467828685E0
1.341565733E1,3.600984371E0,-7.809209104E0,-1.938256094E0,8.815195514E0
1.342557733E1,3.499100146E0,-5.943578351E0,-2.618587822E0,7.377454007E0
1.343549633E1,2.658506178E0,-4.365439990E0,-2.946097387E0,5.899509405E0
1.344541533E1,1.774844543E0,-3.082145723E0,-2.309887580E0,4.240905097E0
1.345533433E1,1.307670139E0,-2.408610215E0,-1.276464719E0,3.023370063E0
1.346525333E1,1.052123426E0,-2.070616007E0,-9.393084168E-2,2.324486471E0
1.347517233E1,4.720977598E-1,-1.974043393E0,1.069474600E0,2.294231796E0
1.348509133E1,-3.502727759E-1,-1.235993215E0,2.023368458E0,2.396745744E0
1.349501033E1,-8.213051730E-1,-3.201034820E-1,2.718331965E0,2.857680370E0
1.350492933E1,-6.725180930E-1,3.446278739E-1,2.987736579E0,3.081820699E0
1.351484833E1,-2.953212279E-1,3.048931199E-1,3.115844396E0,3.144624102E0
1.352476733E1,1.268493794E0,-3.717519379E-1,3.546291854E0,3.784634979E0
1.353468633E1,3.898739210E0,-1.187821514E0,4.261245530E0,5.896549910E0
1.354460633E1,5.088577428E0,-2.066531727E0,4.310753905E0,6.981888917E0
1.355452533E1,4.468865540E0,-2.855744457E0,3.353762923E0,6.274851501E0
1.356444433E1,2.537619672E0,-3.095991345E0,2.064154249E0,4.503932590E0
1.357436333E1,5.948425108E-1,-2.612004442E0,1.134643938E0,2.909264801E0
1.358428233E1,-8.207444251E-1,-1.601347130E0,6.101433586E-1,1.900054989E0
1.359420133E1,-1.667203735E0,-4.394124091E-1,5.058366327E-1,1.796808910E0
1.360412033E1,-2.005222501E0,5.782808572E-1,5.872007847E-1,2.167978503E0
1.361403933E1,-2.092356539E0,1.310110767E0,4.991692720E-1,2.518633771E0
1.362395833E1,-2.216631507E0,1.863816946E0,2.732631916E-1,2.908941666E0
1.363387733E1,-2.372971435E0,2.278491540E0,2.733345276E-1,3.301095105E0
1.364379633E1,-2.211207629E0,2.885319089E0,3.248321253E-1,3.649660441E0
1.365371533E1,-2.350190098E0,3.487693398E0,2.436031902E-1,4.212688126E0
1.366363533E1,-2.505368770E0,4.011674087E0,6.694828033E-2,4.730209691E0
1.367355433E1,-2.613874381E0,4.475465877E0,2.895195840E-2,5.182950155E0
1.368347333E1,-2.843073540E0,4.931992502E0,8.835025907E-2,5.693454396E0
1.369339233E1,-3.147207692E0,5.342696251E0,1.884861660E-1,6.203615601E0
1.370331133E1,-3.517431752E0,5.777357798E0,2.937512505E-1,6.770264326E0
1.371323033E1,-3.917461994E0,6.164918268E0,4.203610110E-1,7.316380875E0
1.372314933E1,-4.275137930E0,6.477282960E0,5.439021528E-1,7.779963266E0
1.373306833E1,-4.663464970E0,6.696133132E0,7.472343993E-1,8.194172545E0
1.374298733E1,-5.083853463E0,6.831383323E0,9.329653573E-1,8.566433826E0
1.375290633E1,-5.509565846E0,6.910382130E0,1.027884378E0,8.897485223E0
1.376282533E1,-5.896596558E0,6.844740703E0,1.073924185E0,9.098001946E0
1.377274433E1,-6.025835811E0,6.652118801E0,1.091006241E0,9.041663364E0
1.378266433E1,-5.731277061E0,6.323642106E0,1.078234826E0,8.602242531E0
1.379258333E1,-5.421882169E0,5.945655282E0,1.042582013E0,8.113852368E0
1.380250233E1,-5.100392897E0,5.520199007E0,9.652408914E-1,7.577486045E0
1.381242133E1,-4.624602621E0,4.830630434E0,8.965734565E-1,6.747279729E0
1.382234033E1,-3.922056736E0,3.703676096E0,8.529099584E-1,5.461428482E0
1.383225933E1,-2.839624268E0,1.917656938E0,8.508821440E-1,3.530562921E0
1.384217833E1,-1.033690079E0,-4.671627098E-1,9.481505764E-1,1.478426762E0
1.385209733E1,1.442576514E0,-3.605721785E0,8.685886824E-1,3.979535511E0
1.386201633E1,4.139454460E0,-6.975331832E0,5.070822724E-1,8.126959445E0
1.387193533E1,6.680242154E0,-9.672198669E0,-2.478728271E-1,1.175748712E1
1.388185533E1,8.903440084E0,-1.116792930E1,-1.626985416E0,1.437501206E1
1.389177433E1,1.047813093E1,-1.087982061E1,-3.708452686E0,1.555359590E1
1.390169333E1,9.823902340E0,-8.042705966E0,-6.561301017E0,1.429142566E1
1.391161233E1,6.887716568E0,-4.318044214E0,-9.451343486E0,1.246651672E1
1.392153133E1,3.761636621E0,-1.804471216E0,-1.054075695E1,1.133638317E1
1.393145033E1,2.075306643E0,-9.003788245E-1,-9.810188280E0,1.006763993E1
1.394136933E1,1.770995906E0,-1.249318435E0,-7.638610740E0,7.940125760E0
1.395128833E1,2.230728559E0,-2.156999263E0,-4.798202068E0,5.714152501E0
1.396120733E1,2.797285164E0,-3.118566275E0,-2.566806634E0,4.913120821E0
1.397112633E1,3.197503102E0,-4.028620487E0,-1.192172427E0,5.279685996E0
1.398104533E1,3.450124453E0,-4.526021488E0,-4.090831938E-1,5.705749584E0
1.399096433E1,3.748445887E0,-4.761440331E0,1.594602951E-1,6.061978899E0
1.400088433E1,4.257023256E0,-5.037073984E0,5.538783798E-1,6.618243164E0
1.401080333E1,3.621230355E0,-4.215111583E0,1.212982960E-1,5.558344018E0
1.402072233E1,1.358696451E0,-2.308535703E0,-1.208452830E-1,2.681416924E0
1.403064133E1,-1.192136174E0,-6.364027655E-1,5.824484602E-1,1.471544545E0
1.404056033E1,-3.312943511E0,4.778403103E-2,1.557859487E0,3.661257189E0
1.405047933E1,-3.859748806E0,-1.808561343E-1,2.080353960E0,4.388421400E0
1.406039833E1,-3.381868735E0,-1.032384396E0,2.359778509E0,4.251047905E0
1.407031733E1,-2.508664845E0,-2.384913788E0,2.386681548E0,4.204457384E0
1.408023633E1,-1.585768978E0,-3.039858075E0,2.911859601E0,4.498258185E0
1.409015533E1,-2.963988698E-1,-3.245645567E0,3.558663393E0,4.825572773E0
1.410007433E1,5.517888772E-1,-3.530043612E0,3.885526257E0,5.278540817E0
1.410999433E1,6.475060433E-1,-4.397078689E0,3.948262203E0,5.944942346E0
1.411991333E1,-4.278700054E-1,-4.546985511E0,4.128740022E0,6.156674764E0
1.412983233E1,-1.638695635E0,-3.654378805E0,4.067550080E0,5.708307235E0
1.413975196E1,-1.751053977E0,-2.866964679E0,3.627140136E0,4.943867116E0
1.414967096E1,-2.370662954E0,-1.314834732E0,2.920297133E0,3.984591392E0
1.415958996E1,-3.259098256E0,1.012708515E-1,2.451510651E0,4.079446249E0
1.416950896E1,-3.918300485E0,1.007562965E0,2.141542733E0,4.577604952E0
1.417942796E1,-4.284036223E0,1.630142913E0,1.808642035E0,4.927628058E0
1.418934696E1,-4.531519040E0,2.043663851E0,1.516621560E0,5.197246166E0
1.419926696E1,-4.687799327E0,2.374318634E0,1.295041323E0,5.412022130E0
1.420918596E1,-4.797393690E0,2.637410594E0,1.125730443E0,5.589113515E0
1.421910496E1,-4.783023573E0,2.894281116E0,9.945938408E-1,5.678326742E0
1.422902396E1,-4.761590019E0,3.082023516E0,9.235630345E-1,5.746701414E0
1.423894296E1,-4.842310832E0,3.176270692E0,8.871535921E-1,5.858644143E0
1.424886196E1,-4.869820227E0,3.059246272E0,1.010354426E0,5.839088359E0
1.425878096E1,-5.017838398E0,2.906341583E0,1.177636249E0,5.917123518E0
1.426869996E1,-5.355104628E0,2.768179479E0,1.281124949E0,6.162892530E0
1.427861896E1,-5.588799126E0,2.558529608E0,1.344313470E0,6.291893843E0
1.428853796E1,-5.643681677E0,2.263074186E0,1.369648286E0,6.232863232E0
1.429845696E1,-5.531725624E0,1.867650381E0,1.380857399E0,5.999572774E0
1.430837696E1,-5.250037179E0,1.499542428E0,1.394383178E0,5.635230458E0
1.431829596E1,-4.842862224E0,1.168343562E0,1.342386228E0,5.159490477E0
1.432821496E1,-4.167281359E0,9.934127033E-1,1.240953408E0,4.460164581E0
1.433813396E1,-3.406510656E0,1.172707631E0,1.137316189E0,3.777968522E0
1.434805296E1,-2.689281244E0,1.696667270E0,1.023977269E0,3.340575232E0
1.435797196E1,-2.023458213E0,2.234864587E0,9.395750499E-1,3.157816355E0
1.436789096E1,-1.247588829E0,2.760955828E0,7.912170093E-1,3.131354232E0
1.437780996E1,-7.110097289E-2,3.022497399E0,4.575153887E-1,3.057755093E0
1.438772896E1,1.495095620E0,2.960150585E0,-3.519902493E-1,3.334921219E0
1.439764896E1,2.918977416E0,2.633461677E0,-1.851016660E0,4.345320729E0
1.440756796E1,4.013078588E0,2.054606915E0,-3.738245127E0,5.856678748E0
1.441748696E1,4.612055665E0,1.440779957E0,-5.666985755E0,7.447256669E0
1.442740596E1,4.843216565E0,7.776685721E-1,-6.944225814E0,8.501987254E0
1.443732496E1,4.601335380E0,7.461833623E-1,-7.084756626E0,8.480734245E0
1.444724396E1,4.027717093E0,1.337131628E0,-6.252447578E0,7.556687547E0
1.445716296E1,3.551475411E0,1.838099138E0,-5.507943828E0,6.806543267E0
1.446708196E1,3.400861076E0,2.008490218E0,-5.434100511E0,6.717837254E0
1.447700096E1,3.517892513E0,1.767828762E0,-5.736054820E0,6.957234448E0
1.448691996E1,3.998545918E0,1.122566003E0,-5.978074000E0,7.279140927E0
1.449683996E1,5.057452115E0,-1.486713052E-2,-5.664323518E0,7.593589654E0
1.450675896E1,6.555764873E0,-1.789291259E0,-4.805267259E0,8.322872684E0
1.451667796E1,7.909490021E0,-3.376574958E0,-3.665881155E0,9.348795403E0
1.452659696E1,8.498201727E0,-4.225738898E0,-2.794290805E0,9.893652658E0
1.453651596E1,7.258670946E0,-3.417955996E0,-2.259768755E0,8.335303349E0
1.454643496E1,4.555944030E0,-1.188060957E0,-1.838361678E0,5.054472128E0
1.455635396E1,2.839507324E0,3.669434801E-1,-1.312188283E0,3.149490030E0
1.456627296E1,2.249865911E0,1.014833393E0,-3.771497950E-1,2.496803036E0
1.457619296E1,1.751827564E0,1.110851983E0,9.135663423E-1,2.266604377E0
1.458611196E1,1.066405250E0,5.828472403E-1,2.059216568E0,2.391088442E0
1.459603096E1,9.941669941E-2,-2.707623374E-1,2.681880715E0,2.697346862E0
1.460594996E1,-7.165827101E-1,-1.063417616E0,3.031797980E0,3.291830311E0
1.461586896E1,-7.864943594E-1,-1.719455624E0,3.205656167E0,3.721737831E0
1.462578796E1,1.140283066E-1,-2.385737369E0,3.179307736E0,3.976523976E0
1.463570696E1,1.704951020E0,-3.169216027E0,3.000168929E0,4.685274998E0
1.464562596E1,3.205947651E0,-3.740772294E0,2.853333357E0,5.693240636E0
1.465554496E1,4.050375638E0,-3.881954485E0,2.754787016E0,6.250117194E0
1.466546496E1,4.049837109E0,-3.706497962E0,2.658871629E0,6.099910335E0
1.467538396E1,3.115933274E0,-3.309674625E0,2.447979079E0,5.162904983E0
1.468530296E1,1.590864242E0,-2.673006396E0,2.106482974E0,3.756738312E0
1.469522196E1,-8.227032423E-4,-1.815230385E0,2.037107953E0,2.728529061E0
1.470514096E1,-1.160146642E0,-8.206371287E-1,2.089198166E0,2.526684489E0
1.471505996E1,-1.922638181E0,4.289458930E-2,2.086323967E0,2.837450478E0
1.472497896E1,-2.423577332E0,6.713919193E-1,2.097681306E0,3.274868098E0
1.473489796E1,-2.845472653E0,1.293197988E0,2.129129094E0,3.781833729E0
1.474481696E1,-3.108276345E0,1.948136719E0,2.197036902E0,4.275931438E0
1.475473696E1,-3.374139301E0,2.527251682E0,2.148637159E0,4.731644400E0
1.476465596E1,-3.628092062E0,2.989218556E0,2.044757865E0,5.126354876E0
1.477457496E1,-3.769254373E0,3.355152514E0,1.989670662E0,5.424307907E0
1.478449396E1,-3.817605000E0,3.612956252E0,1.952580311E0,5.607149961E0
1.479441296E1,-3.786475008E0,3.845485693E0,1.843087690E0,5.702817324E0
1.480433196E1,-3.773233988E0,4.070098296E0,1.728602131E0,5.813007844E0
1.481425096E1,-3.855956302E0,4.292763777E0,1.653786422E0,6.002601884E0
1.482416996E1,-3.983343742E0,4.542812645E0,1.681010181E0,6.271361043E0
1.483408996E1,-4.065125824E0,4.755241697E0,1.718873533E0,6.487842306E0
1.484400896E1,-4.126822720E0,4.836004025E0,1.774056046E0,6.600369349E0
1.485392796E1,-4.249004384E0,4.817850759E0,1.856430451E0,6.686707576E0
1.486384696E1,-4.419022120E0,4.682198864E0,1.859892003E0,6.701487966E0
1.487376596E1,-4.653576159E0,4.494069963E0,1.941626137E0,6.754431727E0
1.488368496E1,-4.813028560E0,4.248895626E0,1.935026093E0,6.705421981E0
1.489360396E1,-4.916424875E0,3.966072237E0,1.808736759E0,6.570577692E0
1.490352296E1,-4.912078639E0,3.541459715E0,1.600864735E0,6.263642820E0
1.491344196E1,-4.730843021E0,2.940267128E0,1.284223389E0,5.716229193E0
1.492336196E1,-4.368795122E0,2.140355163E0,9.724729469E-1,4.961168680E0
1.493328096E1,-3.791858540E0,1.090717973E0,6.734007302E-1,4.002664790E0
1.494319996E1,-2.857441903E0,-2.492855144E-1,2.837829173E-1,2.882299471E0
1.495311896E1,-1.580609395E0,-1.908421261E0,-2.420981169E-1,2.489780968E0
1.496303796E1,5.287169337E-2,-4.003082773E0,-8.500391217E-1,4.092680492E0
1.497295696E1,1.789169052E0,-6.151735720E0,-1.485839624E0,6.576678315E0
1.498287596E1,3.401183258E0,-7.856239429E0,-2.300224471E0,8.864512289E0
1.499279496E1,4.851060605E0,-8.480917942E0,-3.354066686E0,1.032998168E1
1.500271496E1,5.784151093E0,-6.825566513E0,-4.540533400E0,1.003300581E1
1.501263396E1,5.656865394E0,-3.479228384E0,-5.819798058E0,8.830357052E0
1.502255296E1,4.911707926E0,-2.975764990E-1,-7.370654481E0,8.862278150E0
1.503247196E1,4.144907573E0,1.443126737E0,-9.582067932E0,1.053939749E1
1.504239096E1,3.275286857E0,1.219366073E0,-1.105597734E1,1.159521421E1
1.505230996E1,3.051523270E0,-2.332922101E-2,-9.388943170E0,9.872415731E0
1.506222896E1,3.396410176E0,-2.060887994E0,-6.107780446E0,7.286140500E0
1.507214796E1,4.425927097E0,-3.667611639E0,-3.717480202E0,6.845426565E0
1.508206796E1,5.101643032E0,-4.496086668E0,-2.400203673E0,7.211278293E0
1.509198696E1,4.965764265E0,-5.334051143E0,-1.715685339E0,7.486954822E0
1.510190596E1,5.498381876E0,-5.006236353E0,-1.096679502E0,7.516469358E0
1.511182496E1,5.668252847E0,-4.958589147E0,-6.490985325E-1,7.558969875E0
1.512174396E1,7.078773170E0,-5.047664461E0,1.583203804E-1,8.695574245E0
1.513166296E1,8.946851567E0,-3.892430064E0,-2.393206894E-1,9.759838070E0
1.514158212E1,5.867133608E0,-1.719129934E0,6.355411783E-2,6.114139647E0
1.515150112E1,3.761993301E-1,1.377527994E-1,2.020782819E0,2.060112854E0
1.516142112E1,-3.078470748E0,2.346612187E0,3.061897985E0,4.935462508E0
1.517134012E1,-4.872938547E0,3.339354799E0,3.389442633E0,6.810663839E0
1.518125913E1,-5.321525238E0,2.742033654E0,3.405106155E0,6.887098615E0
1.519117812E1,-5.064096891E0,9.557496178E-1,3.017034638E0,5.971685914E0
1.520109712E1,-4.557979445E0,-1.435417768E0,3.121978126E0,5.708094972E0
1.521101612E1,-3.245936759E0,-3.471336397E0,3.845104455E0,6.113191481E0
1.522093512E1,-1.184466966E0,-4.764422411E0,4.876143991E0,6.919498762E0
1.523085412E1,4.714843869E-1,-5.726992806E0,5.371200843E0,7.865783026E0
1.524077412E1,4.492380702E-1,-6.128725757E0,5.316297827E0,8.125645625E0
1.525069312E1,-9.716458583E-1,-5.198476431E0,4.838507802E0,7.167943264E0
1.526061212E1,-1.766049746E0,-3.955180628E0,3.752951167E0,5.731232674E0
1.527053112E1,-2.109608749E0,-2.942691384E0,2.635796177E0,4.478538059E0
1.528045012E1,-2.702612895E0,-1.684784558E0,1.891585958E0,3.704148068E0
1.529036912E1,-3.262016602E0,-5.202761856E-1,1.266951299E0,3.537881458E0
1.530028812E1,-3.568753933E0,4.057953045E-1,1.008576872E0,3.730670419E0
1.531020712E1,-3.862234458E0,1.274571390E0,1.028315903E0,4.195094854E0
1.532012712E1,-4.193588567E0,2.365708024E0,1.015103534E0,4.920690471E0
1.533004612E1,-4.410041381E0,3.356878320E0,1.164703377E0,5.663358632E0
1.533996512E1,-4.524469637E0,4.124061665E0,1.554242545E0,6.316199807E0
1.534988412E1,-4.586288155E0,4.403239315E0,2.128416903E0,6.704678518E0
1.535980312E1,-4.534056732E0,4.081291621E0,2.531488867E0,6.604774609E0
1.536972213E1,-4.607446305E0,3.535027778E0,2.617633556E0,6.370006929E0
1.537964112E1,-4.993879432E0,3.007163661E0,2.438920426E0,6.319034571E0
1.538956012E1,-5.511501859E0,2.538132181E0,2.149972079E0,6.437479914E0
1.539948012E1,-5.777154315E0,2.085950622E0,1.891320494E0,6.426802874E0
1.540939912E1,-5.645606580E0,1.642664433E0,1.749381673E0,6.134456483E0
1.541931813E1,-5.242811775E0,1.228694721E0,1.546581523E0,5.602560167E0
1.542923712E1,-4.757743721E0,9.352068874E-1,1.216996343E0,4.999181667E0
1.543915612E1,-4.339459641E0,9.040742648E-1,6.772362113E-1,4.484072829E0
1.544907512E1,-3.994914213E0,1.111317129E0,-9.570137858E-2,4.147713115E0
1.545899412E1,-3.759591265E0,1.606048876E0,-1.024261444E0,4.214621095E0
1.546891312E1,-3.531812394E0,2.134833930E0,-1.844871237E0,4.520482781E0
1.547883312E1,-3.146697814E0,2.505974249E0,-2.631858662E0,4.807108704E0
1.548875212E1,-2.600639209E0,2.561728620E0,-3.298188062E0,4.919738032E0
1.549867112E1,-1.721346613E0,2.308289243E0,-3.698216550E0,4.687007472E0
1.550859012E1,-6.245159608E-1,1.777680735E0,-3.994922984E0,4.416964866E0
1.551850912E1,6.930412352E-1,1.050901066E0,-4.065231366E0,4.255679178E0
1.552842812E1,2.139923639E0,2.897406453E-1,-3.947074049E0,4.499179521E0
1.553834712E1,3.511778664E0,-1.616193795E-1,-3.508124739E0,4.966452395E0
1.554826612E1,4.533105390E0,-2.067768413E-1,-3.115906084E0,5.504604606E0
1.555818612E1,5.085443906E0,5.575466305E-1,-2.904450009E0,5.882892810E0
1.556810512E1,5.052808256E0,1.887992844E0,-2.729601596E0,6.045338132E0
1.557802412E1,4.698578085E0,2.837042722E0,-2.943452107E0,6.228110286E0
1.558794312E1,4.418278939E0,3.038091631E0,-3.570202289E0,6.441857955E0
1.559786212E1,4.299154783E0,2.703865954E0,-4.128873339E0,6.545320313E0
1.560778112E1,4.719188350E0,1.780091542E0,-4.624776868E0,6.843100588E0
1.561770012E1,5.955152915E0,3.180370760E-1,-4.741800703E0,7.619033254E0
1.562761912E1,7.414343707E0,-1.424352497E0,-4.402161673E0,8.739582372E0
1.563753912E1,8.677981389E0,-2.872966846E0,-3.892684418E0,9.935506603E0
1.564745812E1,9.125777535E0,-3.428770129E0,-3.526517156E0,1.036689941E1
1.565737712E1,7.852819977E0,-2.504204297E0,-3.090457833E0,8.802769471E0
1.566729612E1,5.646188378E0,-6.168669257E-1,-2.540920133E0,6.222237791E0
1.567721512E1,4.522334819E0,8.328013837E-1,-1.918713238E0,4.982622888E0
1.568713412E1,3.987829726E0,1.610862889E0,-1.045111445E0,4.426050509E0
1.569705312E1,3.243633540E0,1.567712776E0,4.532995462E-2,3.602906701E0
1.570697212E1,2.109814571E0,5.084133545E-1,1.236816211E0,2.497902321E0
1.571689212E1,5.530033439E-1,-8.859975976E-1,1.977724508E0,2.236559561E0
1.572681112E1,-5.003947753E-1,-1.917218690E0,2.119472710E0,2.901428442E0
1.573673012E1,-7.667541593E-1,-2.473537697E0,2.066576896E0,3.313161745E0
1.574664912E1,-3.592447436E-1,-2.967326873E0,2.097886251E0,3.651740993E0
1.575656812E1,1.001805212E0,-3.545366240E0,2.160240082E0,4.270816394E0
1.576648712E1,2.652784678E0,-4.016052190E0,2.420764822E0,5.387582395E0
1.577640612E1,3.575073019E0,-4.233624161E0,2.845199003E0,6.228954808E0
1.578632512E1,3.422358364E0,-3.844333792E0,3.163136677E0,6.041264165E0
1.579624513E1,2.497458072E0,-3.566696006E0,3.349999655E0,5.493734150E0
1.580616412E1,1.196066088E0,-2.891660686E0,3.153868255E0,4.442877512E0
1.581608312E1,-1.875775087E-1,-1.629448848E0,2.690488694E0,3.151034478E0
1.582600212E1,-1.311756758E0,-1.987372121E-1,2.374053755E0,2.719620103E0
1.583592112E1,-2.201194273E0,9.498556244E-1,1.915480020E0,3.068639053E0
1.584584012E1,-2.775646958E0,1.598135839E0,1.602638780E0,3.581438992E0
1.585575912E1,-3.154568167E0,2.000515493E0,1.670464143E0,4.091920455E0
1.586567812E1,-3.552913826E0,2.245802973E0,1.863759059E0,4.597871842E0
1.587559812E1,-4.054854605E0,2.428185523E0,1.927532301E0,5.104244467E0
1.588551712E1,-4.428912685E0,2.749354953E0,1.885661559E0,5.543459186E0
1.589543612E1,-4.390036887E0,3.231894085E0,1.889710317E0,5.769624627E0
1.590535512E1,-3.994248800E0,3.926964597E0,1.931788197E0,5.925105911E0
1.591527412E1,-3.443107794E0,4.671915951E0,2.006252634E0,6.140589513E0
1.592519312E1,-3.304648651E0,4.785084717E0,1.912436983E0,6.121695326E0
1.593511213E1,-3.503979063E0,4.410971088E0,1.557876005E0,5.844785100E0
1.594503112E1,-3.888872033E0,4.075145028E0,1.289291463E0,5.778616199E0
1.595495112E1,-4.273749216E0,4.065528113E0,8.587220907E-1,5.960776361E0
1.596487012E1,-4.524702941E0,4.426002526E0,4.689024027E-1,6.346834213E0
1.597478912E1,-4.642751209E0,4.745612503E0,2.991656260E-1,6.645711164E0
1.598470813E1,-4.657381527E0,4.766451395E0,7.857956171E-2,6.664565727E0
1.599462712E1,-4.805103829E0,4.714072037E0,-9.149723053E-3,6.731387798E0
1.600454612E1,-5.165398148E0,4.680630641E0,-6.414541751E-3,6.970629984E0
1.601446512E1,-5.458334296E0,4.623878735E0,6.350880191E-2,7.153859184E0
1.602438412E1,-5.571159246E0,4.423809235E0,7.456946813E-2,7.114314029E0
1.603430413E1,-5.440272832E0,3.942645952E0,5.008491039E-2,6.718893814E0
1.604422312E1,-5.002987640E0,3.128925202E0,5.902632639E-2,5.901147546E0
1.605414212E1,-4.296096105E0,1.944048931E0,1.599003712E-1,4.718192039E0
1.606406112E1,-3.312289792E0,4.150575864E-1,1.538262105E-1,3.341735922E0
1.607398012E1,-2.065969809E0,-1.484367149E0,3.085692644E-2,2.544116592E0
1.608389912E1,-4.071451342E-1,-3.715143655E0,-1.945813036E-1,3.742448586E0
1.609381812E1,1.559025568E0,-5.648628421E0,-5.254306524E-1,5.883335885E0
1.610373712E1,3.934241164E0,-6.402308791E0,-1.682629859E0,7.700587941E0
1.611365712E1,6.195964644E0,-5.446792477E0,-3.590916635E0,8.997344522E0
1.612357612E1,7.238913789E0,-4.002212123E0,-4.932232822E0,9.630498187E0
1.613349512E1,6.893383690E0,-3.174575585E0,-4.620138856E0,8.884950866E0
1.614341312E1,5.813384832E0,-2.750823773E0,-4.256272473E0,7.712219525E0
1.615333212E1,4.556569097E0,-2.418009029E0,-4.834632268E0,7.069848567E0
1.616325112E1,3.611005914E0,-1.994808610E0,-5.732827742E0,7.062856293E0
1.617317012E1,3.156405362E0,-2.215203617E0,-5.903551236E0,7.051378523E0
1.618308912E1,3.305510530E0,-3.556707500E0,-5.407022055E0,7.267217873E0
1.619300912E1,3.897817104E0,-4.729694628E0,-4.615507861E0,7.672411763E0
1.620292812E1,4.473475485E0,-5.420621510E0,-3.803844162E0,7.991517432E0
1.621284712E1,4.794871202E0,-5.845532824E0,-3.234109011E0,8.223168789E0
1.622276612E1,4.869190482E0,-6.464354766E0,-2.496419314E0,8.469297957E0
1.623268512E1,5.890778579E0,-6.695500463E0,-1.302495207E0,9.012629610E0
1.624260412E1,8.138516103E0,-6.668068251E0,-1.557461438E-1,1.052249188E1
1.625252312E1,8.854387207E0,-4.621264445E0,8.625344753E-2,9.988177889E0
1.626244213E1,5.275607638E0,-2.270563885E0,6.821937731E-1,5.783846873E0
1.627236212E1,-1.578683907E-1,9.160072625E-2,2.359396978E0,2.366446116E0
1.628228112E1,-3.662006498E0,2.683450400E0,3.251288130E0,5.584090987E0
1.629220012E1,-4.985289872E0,3.790408430E0,3.422657157E0,7.136868585E0
1.630211912E1,-4.859070121E0,2.897080178E0,3.283140253E0,6.540844435E0
1.631203813E1,-4.427392409E0,5.264435363E-1,2.950018530E0,5.346172057E0
1.632195712E1,-4.173908009E0,-1.968880886E0,2.525532893E0,5.260828490E0
1.633187612E1,-3.696910282E0,-4.059917709E0,2.342593396E0,5.969742143E0
1.634179512E1,-2.793479211E0,-5.073365897E0,2.139466971E0,6.174130429E0
1.635171412E1,-2.038753359E0,-5.295295798E0,2.343976847E0,6.139291515E0
1.636163413E1,-2.062764950E0,-4.716878700E0,3.207424657E0,6.065601112E0
1.637155312E1,-1.796851709E0,-4.611037665E0,3.710122651E0,6.185091309E0
1.638147212E1,-1.846337864E0,-4.059060507E0,3.448041090E0,5.636836264E0
1.639139112E1,-2.583324434E0,-2.890046563E0,2.482457625E0,4.603100056E0
1.640131012E1,-3.239251637E0,-1.829629153E0,1.889875063E0,4.172759490E0
1.641122912E1,-3.946698073E0,-6.695903921E-1,1.343580229E0,4.222556666E0
1.642114812E1,-4.433626710E0,8.382638526E-1,1.236117761E0,4.678431277E0
