"Time (s)","Linear Acceleration x (m/s^2)","Linear Acceleration y (m/s^2)","Linear Acceleration z (m/s^2)","Absolute acceleration (m/s^2)"
2.068416681E-3,-6.234934290E-1,1.498577052E-1,-1.740828366E0,1.855177832E0
1.199041668E-2,-2.586008598E-1,-2.470787752E-1,-1.779973721E0,1.815551920E0
2.191141667E-2,1.702754514E-1,-3.595856363E-1,-1.799775317E0,1.843227265E0
3.183341667E-2,4.215149590E-1,2.045689327E-1,-2.098287370E0,2.149961208E0
4.175541666E-2,6.502399821E-1,1.703074649E-1,-2.349416512E0,2.443680546E0
5.167641665E-2,5.873615831E-1,-3.897403121E-2,-2.306179276E0,2.380120891E0
6.159841665E-2,2.040214140E-1,5.376985493E-1,-2.543330063E0,2.607541424E0
7.152041665E-2,-2.118088089E-1,9.528824356E-1,-2.275587813E0,2.476115466E0
8.144141664E-2,-7.475333382E-1,1.195575507E0,-1.932230539E0,2.392012069E0
9.136341664E-2,-1.134467279E0,1.344180154E0,-1.592850541E0,2.372974745E0
1.012854166E-1,-1.125922451E0,1.203023982E0,-1.450412952E0,2.195145963E0
1.112064166E-1,-7.813188426E-1,7.777100873E-1,-1.585922760E0,1.931435506E0
1.211284166E-1,-3.761548913E-1,3.686739635E-1,-1.803913976E0,1.879233521E0
1.310504166E-1,-1.002879345E-1,2.497117764E-1,-1.988335742E0,2.006462725E0
1.409714166E-1,-1.795593680E-1,3.796456790E-1,-2.691790284E0,2.724354481E0
1.508934166E-1,-2.334202641E-1,3.571233737E-1,-2.812541134E0,2.844716112E0
1.608154166E-1,-8.805596870E-1,5.028456357E-1,-1.825671465E0,2.088376258E0
1.707364166E-1,-1.382216145E0,5.882822272E-1,-3.274526135E0,3.602654418E0
1.806584166E-1,-1.335996391E0,1.545757358E0,-1.136726789E0,2.338033353E0
1.905804166E-1,-1.301985184E0,1.930248771E0,1.383635995E0,2.708408076E0
2.005014167E-1,-4.782560474E-1,8.852788286E-1,2.593750019E0,2.782083143E0
2.104234167E-1,2.684138033E-1,6.948860317E-2,3.496366573E0,3.507342847E0
2.203454167E-1,6.255862936E-3,4.265975051E-1,4.049487446E0,4.071900434E0
2.302664167E-1,-1.553892443E-1,1.193965695E0,3.116418008E0,3.340922193E0
2.401884167E-1,4.673878276E-1,1.441520361E0,1.190019482E0,1.926805309E0
2.501104167E-1,1.157092349E0,8.378159559E-1,2.589246494E-1,1.451840299E0
2.600314167E-1,1.413075118E0,-9.189788175E-1,-5.876451731E-2,1.686640633E0
2.699534167E-1,7.064445153E-1,-6.940164046E-1,3.006779206E0,3.165666410E0
2.798754167E-1,1.496790728E-1,1.582845516E0,3.826196314E0,4.143378088E0
2.897964166E-1,6.966969144E-1,1.608814024E0,1.808723896E0,2.518958373E0
2.997184166E-1,8.775480786E-1,2.483020127E-1,2.129067698E0,2.316176544E0
3.096404166E-1,1.522281665E-1,-2.156143084E0,2.267964213E0,3.133015813E0
3.195614166E-1,-1.457534276E0,-4.271548617E0,1.718583804E0,4.829499357E0
3.294834166E-1,-3.315740527E0,-4.598527547E0,1.836924432E0,5.959436400E0
3.394054166E-1,-4.404703750E0,-3.193797721E0,9.849868655E-1,5.529191454E0
3.493264166E-1,-4.076309209E0,-1.042672572E0,-2.017612751E0,4.666285897E0
3.592484166E-1,-3.240497679E0,-1.390526354E-1,-4.473757905E0,5.525818549E0
3.691704166E-1,-3.765579983E0,7.749607265E-2,-5.673332908E0,6.809721325E0
3.790914166E-1,-5.571467979E0,1.020682363E0,-4.313942977E0,7.119912354E0
3.890134166E-1,-4.281963677E0,3.662000066E-1,9.179345047E-1,4.394532868E0
3.989354166E-1,-8.398970530E-1,-1.672454242E0,4.491667927E0,4.865964552E0
4.088564166E-1,1.846117132E0,-2.736990723E0,5.023081596E0,6.010874762E0
4.187784166E-1,1.926519563E0,-3.123941036E0,3.254318742E0,4.905209037E0
4.286994167E-1,7.537784569E-1,-3.436664162E0,1.139030592E0,3.698139156E0
4.386214167E-1,1.837769647E-1,-3.536875791E0,6.488263446E-1,3.600588835E0
4.485434167E-1,-3.590212338E-1,-2.808499831E0,6.171087080E-1,2.897825168E0
4.584644167E-1,1.446279556E-2,-1.970894668E0,-1.286451763E-1,1.975141652E0
4.683864167E-1,7.728892042E-1,-1.242826856E0,-1.365309067E0,2.001510721E0
4.783084167E-1,5.490301609E-1,-1.053658905E0,-1.281545949E0,1.747567230E0
4.882294167E-1,1.613721885E-1,-1.736576856E0,-8.439426684E-1,1.937518874E0
4.981514167E-1,-1.100649761E0,-2.525613585E0,-1.583660472E0,3.177756184E0
5.080734167E-1,-2.278552351E0,-3.576411739E0,-2.869639195E0,5.120288161E0
5.179944166E-1,-7.201764089E-1,-4.426302488E0,-3.264563064E0,5.546907226E0
5.279164166E-1,7.095131341E-1,-4.812948746E0,-2.752247570E0,5.589521554E0
5.378384166E-1,1.475456285E0,-4.822677928E0,-1.682099517E0,5.316451112E0
5.477594166E-1,9.584978092E-1,-2.966399797E0,-5.625202721E-1,3.167755493E0
5.576814166E-1,6.843198207E-1,-3.049681105E0,-8.989643830E-1,3.252227763E0
5.676040417E-1,-8.030916810E-2,-3.318872295E0,-1.506355019E0,3.645609458E0
5.775250416E-1,-6.922068375E-1,-2.106987442E0,-1.610595086E0,2.740905493E0
5.874470416E-1,-5.868563837E-1,-2.558673449E0,-2.353509563E0,3.525651358E0
5.973690416E-1,-7.106343377E-1,-3.394567718E0,-2.558064462E0,4.309499384E0
6.072900416E-1,-1.210876501E0,-3.427682547E0,-2.375337803E0,4.342517613E0
6.172120416E-1,-1.373092296E0,-3.505537638E0,-2.384421453E0,4.456415853E0
6.271340416E-1,-1.621314202E0,-3.652363270E0,-2.175409221E0,4.549815653E0
6.370550416E-1,-1.810546473E0,-3.693863006E0,-1.987056372E0,4.568489407E0
6.469770416E-1,-1.877925108E0,-3.280542920E0,-1.792766844E0,4.183608193E0
6.568990416E-1,-2.116300887E0,-2.678543417E0,-1.791969284E0,3.855447859E0
6.668200416E-1,-2.439752485E0,-2.473431570E0,-1.980770615E0,3.999213441E0
6.767420416E-1,-2.827818739E0,-2.627423842E0,-1.895719062E0,4.300426215E0
6.866640416E-1,-3.170679000E0,-2.764392237E0,-1.569941442E0,4.489965021E0
6.965850416E-1,-3.761273509E0,-2.811612012E0,-1.518955184E0,4.935541040E0
7.065070416E-1,-4.150206905E0,-2.907494069E0,-1.703608500E0,5.346028529E0
7.164290416E-1,-4.159684657E0,-2.817073311E0,-1.869999792E0,5.360576248E0
7.263500417E-1,-3.882160599E0,-2.478123084E0,-1.903519540E0,4.983538058E0
7.362720417E-1,-3.458321080E0,-2.027295156E0,-1.850860393E0,4.415381584E0
7.461940417E-1,-3.191582796E0,-1.524839821E0,-1.707962044E0,3.927909313E0
7.561150417E-1,-2.879333879E0,-1.118874436E0,-1.454432036E0,3.414354425E0
7.660370417E-1,-2.518992198E0,-8.369013052E-1,-1.229526780E0,2.925313930E0
7.759590417E-1,-1.734347312E0,-7.937564550E-1,-8.940834197E-1,2.106512538E0
7.858800417E-1,-3.219763452E-1,-7.958242498E-1,-4.144671638E-1,9.533037466E-1
7.958020417E-1,1.354986978E0,-6.065016396E-1,4.383189797E-2,1.485178502E0
8.057230416E-1,2.899688621E0,-5.969070165E-1,4.826095918E-1,2.999567319E0
8.156450416E-1,3.966186258E0,-8.787224188E-1,1.092640976E0,4.206738739E0
8.255670416E-1,4.664699902E0,-1.169477337E0,1.405464236E0,5.010232743E0
8.354880416E-1,5.280255005E0,-1.373488153E0,1.645097752E0,5.698588354E0
8.454100416E-1,6.382668579E0,-1.618213423E0,2.126943989E0,6.919607186E0
8.553320416E-1,7.458036441E0,-1.164459987E0,2.229640977E0,7.870805137E0
8.652530416E-1,7.613389360E0,-1.949312595E-1,1.871395669E0,7.842436961E0
8.751750416E-1,7.253942302E0,1.011327110E-1,1.417775110E0,7.391886973E0
8.850970416E-1,6.918871118E0,8.805175871E-2,1.343692642E0,7.048690699E0
8.950180416E-1,6.651113665E0,3.348750106E-1,1.859234483E0,6.914203288E0
9.049400416E-1,6.250148453E0,8.246994817E-1,2.681176418E0,6.850780386E0
9.148620416E-1,5.827773076E0,1.050623615E0,3.447615412E0,6.852211397E0
9.247830416E-1,5.854386678E0,1.182733852E0,3.787353845E0,7.072252250E0
9.347050416E-1,5.910925745E0,1.562719254E0,2.750558310E0,6.704230429E0
9.446270416E-1,5.912090510E0,1.658414493E0,2.597636663E0,6.667148496E0
9.545480417E-1,6.686837229E0,1.420747104E0,1.899266860E0,7.095035522E0
9.644700417E-1,7.142073373E0,1.988670788E0,7.698210239E-2,7.414172227E0
9.743920417E-1,6.847419312E0,3.018732377E0,-1.306891290E0,7.596569044E0
9.843130417E-1,6.300644422E0,3.502533631E0,-2.410683053E0,7.601135096E0
9.942350417E-1,5.237765628E0,3.499101316E0,-3.138407632E0,7.037577797E0
1.004157042E0,3.602542069E0,3.189001543E0,-3.554194951E0,5.981667155E0
1.014078042E0,2.199115587E0,2.707375160E0,-2.799510030E0,4.472498858E0
1.024000042E0,7.569284981E-1,2.153492980E0,-1.920444160E0,2.983048531E0
1.033922042E0,-5.680628479E-1,1.768468739E0,-1.475279406E0,2.372051097E0
1.043843042E0,-1.390200664E0,1.407831774E0,-1.487115194E0,2.475108036E0
1.053765042E0,-1.274956137E0,9.432865700E-1,-2.020619828E0,2.568697568E0
1.063686042E0,-4.117311054E-1,8.114482293E-1,-3.033095770E0,3.166645020E0
1.073608042E0,8.282066417E-1,9.503862593E-1,-4.481480908E0,4.655408834E0
1.083530042E0,6.706352895E-1,1.745037777E0,-2.968263889E0,3.507919476E0
1.093451042E0,8.315430629E-1,2.367949846E0,-9.202277827E-1,2.673101104E0
1.103373042E0,1.947697594E0,3.096955551E0,-1.125193741E0,3.827625969E0
1.113295042E0,2.929111810E0,3.108817505E0,-5.512883556E-1,4.306780831E0
1.123216042E0,3.924968650E0,3.496011647E0,7.916863945E-1,5.315472104E0
1.133138042E0,3.981608874E0,4.026185707E0,1.778763932E0,5.935265933E0
1.143060042E0,3.995456834E0,3.438636428E0,2.745517133E0,5.943547773E0
1.152981042E0,2.565239580E0,1.836717440E0,3.312169047E0,4.574324962E0
1.162903042E0,-1.173011101E0,7.106947102E-1,2.502776991E0,2.853933195E0
1.172825042E0,-2.734344565E0,5.288905960E-1,2.274260787E0,3.595640081E0
1.182746042E0,-2.139703199E0,-9.046329662E-2,2.835157872E0,3.553116033E0
1.192668042E0,-1.171296113E0,-1.042065704E0,3.880062034E0,4.184819817E0
1.202590042E0,-3.545061600E-1,-1.750192390E0,4.753699202E0,5.078041367E0
1.212511042E0,-1.971166563E-1,-2.021841896E0,4.660853019E0,5.084314161E0
1.222433042E0,-7.016167617E-1,-1.562024605E0,3.461134175E0,3.861558846E0
1.232354042E0,-2.702769016E0,-2.365779068E-1,1.053984010E0,2.910637689E0
1.242276042E0,-1.673036333E0,3.382044151E-2,-2.794086152E-1,1.696544596E0
1.252198042E0,1.895233451E0,1.962329958E-1,2.179438537E-1,1.917789547E0
1.262119042E0,-4.342839916E0,1.975583842E0,-8.743028739E-1,4.850525288E0
1.272041042E0,-7.932346203E0,5.006422587E-2,-4.791014670E0,9.267062333E0
1.281963042E0,-7.076116195E0,1.247919343E-1,-4.926375082E0,8.623002081E0
1.291884042E0,-4.799727899E-1,3.940854511E-1,-1.668619931E0,1.780440871E0
1.301806042E0,6.327694811E0,-1.090832432E0,2.395201087E0,6.853220066E0
1.311728042E0,1.585175486E0,-3.239102825E0,1.351785919E0,3.851219755E0
1.321649042E0,-3.613828949E0,-1.517141670E0,-2.092479331E0,4.442966157E0
1.331571042E0,-5.318882881E0,6.229587011E-2,-4.622782382E0,7.047305359E0
1.341493042E0,-3.549386786E0,5.589038423E-1,-5.069062346E0,6.213365684E0
1.351414042E0,-9.879619288E-1,-2.055269258E-1,-4.823224350E0,4.927656971E0
1.361336042E0,1.209693024E0,3.576019683E-1,-5.605142094E0,5.745333260E0
1.371258042E0,2.864629301E0,1.704479150E0,-6.691415598E0,7.475720227E0
1.381179042E0,3.888705972E0,1.962864394E0,-6.345966775E0,7.697153051E0
1.391101042E0,3.914453602E0,1.766518985E0,-5.447850823E0,6.937046556E0
1.401022042E0,3.538721464E0,1.602145275E0,-5.031096375E0,6.356205615E0
1.410944042E0,4.140651385E0,1.389850416E0,-4.348127553E0,6.163026147E0
1.420866042E0,5.045202198E0,1.571747063E0,-3.505142951E0,6.341173484E0
1.430787042E0,5.505245338E0,1.674935801E0,-2.757942466E0,6.381174094E0
1.440709042E0,4.008676804E0,7.210850662E-1,-9.040858130E-1,4.172148673E0
1.450631042E0,3.329678242E0,-2.118067258E-1,3.610095794E-1,3.355882477E0
1.460552042E0,3.817534833E0,9.332112327E-2,1.178934916E0,3.996519557E0
1.470474042E0,5.288687274E0,-1.038746385E0,2.323529134E0,5.869241414E0
1.480396042E0,4.131156676E0,-8.397699492E-1,2.689392926E0,5.000450316E0
1.490317042E0,1.404278421E0,-2.468232884E-1,2.076536897E0,2.518913477E0
1.500239042E0,2.000759321E-1,-8.801554251E-1,2.231637801E0,2.407262185E0
1.510161042E0,-1.084677799E0,-2.096053734E0,2.611180569E0,3.519691911E0
1.520082042E0,-3.136723634E0,-2.952602999E0,2.095022285E0,4.790200205E0
1.530004042E0,-4.655882885E0,-3.641646201E0,1.339194818E0,6.060715738E0
1.539925042E0,-6.384142662E0,-3.386257947E0,4.565202292E-1,7.241024177E0
1.549847042E0,-7.446298741E0,-3.177582223E0,-1.315375600E0,8.202109892E0
1.559769042E0,-6.370302302E0,-3.678327831E0,-2.008363041E0,7.625245515E0
1.569689667E0,-4.683679379E0,-3.347855189E0,-1.339208851E0,5.910877028E0
1.579611667E0,-3.311479953E0,-2.152755207E0,-6.238552254E-1,3.998681008E0
1.589533667E0,-2.539030606E0,-1.803578200E0,1.123639551E0,3.310911744E0
1.599454667E0,-2.078691596E0,-1.239679300E0,2.497713010E0,3.477978407E0
1.609376667E0,-1.372649077E0,-6.053638445E-1,2.514562932E0,2.928080875E0
1.619298667E0,-8.933569032E-1,-9.821904346E-2,1.950563899E0,2.147657575E0
1.629219667E0,-1.648558134E-1,8.939012790E-1,1.353795169E0,1.630643522E0
1.639141667E0,9.861539698E-1,2.081130470E0,8.890666549E-1,2.468611594E0
1.649063667E0,1.030368860E0,2.192328724E0,5.396284229E-1,2.481766318E0
1.658984667E0,-3.758251083E-1,1.364994195E0,2.988185938E-1,1.446978305E0
1.668906667E0,-1.976817312E0,5.832582995E-1,7.026248217E-2,2.062264228E0
1.678827667E0,-2.618953857E0,5.963806209E-1,-3.942985091E-1,2.714785529E0
1.688749667E0,-3.433311369E0,9.701858085E-1,-1.087055131E0,3.729688501E0
1.698671667E0,-4.252491079E0,1.086468509E0,-1.165455037E0,4.541187030E0
1.708592667E0,-3.764644428E0,5.732209691E-1,-5.282054485E-1,3.844493588E0
1.718514667E0,-3.635433826E0,6.394982815E-1,1.180073369E-1,3.693137269E0
1.728436667E0,-4.537812399E0,1.897247817E0,-7.421227634E-2,4.919024101E0
1.738357667E0,-4.516621504E0,3.188998911E0,-7.019433287E-1,5.573357005E0
1.748279667E0,-4.164215664E0,4.053626690E0,-1.350938950E0,5.966373898E0
1.758201667E0,-3.862120437E0,4.446334756E0,-1.902655907E0,6.189181411E0
1.768122667E0,-3.839391140E0,4.538135750E0,-1.718122751E0,6.187693124E0
1.778044667E0,-3.793170070E0,4.148665871E0,-1.148482032E0,5.737471453E0
1.787965667E0,-4.058976892E0,4.117344384E0,-4.224224469E-1,5.797090555E0
1.797887667E0,-3.888537573E0,4.090973733E0,5.214254558E-1,5.668216214E0
1.807809667E0,-2.945128503E0,3.313566824E0,1.911899770E0,4.827925821E0
1.817730667E0,3.587559164E-1,1.775028146E0,3.898903224E0,4.298939064E0
1.827652667E0,3.286293072E0,1.026171729E0,4.276170841E0,5.489844044E0
1.837574667E0,4.559341847E0,9.058594197E-1,3.107085560E0,5.591257465E0
1.847495667E0,4.588827016E0,1.113515682E0,-1.849301818E-1,4.725616334E0
1.857417667E0,3.698960901E0,7.888110262E-1,-3.358921629E0,5.058348455E0
1.867339667E0,4.114829496E0,-1.003813146E0,-5.277528448E0,6.766961588E0
1.877260667E0,4.465577066E0,-2.636239981E0,-4.564811625E0,6.908592110E0
1.887182667E0,6.147443279E0,-3.539077560E0,-2.712528019E0,7.594335856E0
1.897103667E0,7.718666723E0,-2.981950467E0,-7.580143261E-1,8.309297822E0
1.907025667E0,6.441224935E0,-2.792851220E0,1.265956103E0,7.133865814E0
1.916947667E0,2.622556912E0,-4.768365773E0,2.644024964E0,6.050288002E0
1.926868667E0,2.683667917E0,-6.470776763E0,3.549379769E0,7.853096341E0
1.936790667E0,4.652234808E0,-5.621520145E0,1.808487668E0,7.517672851E0
1.946712667E0,4.808071876E0,-3.215241215E0,-1.569442967E0,5.993203022E0
1.956633667E0,2.942518306E0,-1.674443758E0,-3.613530741E0,4.951745177E0
1.966555667E0,1.992066266E0,-1.865421422E0,-3.373503124E0,4.339199052E0
1.976477667E0,3.433586773E0,-2.283920095E0,-2.452827444E0,4.798142515E0
1.986398667E0,3.247099770E0,-2.295691710E0,-2.721612838E0,4.818820787E0
1.996320667E0,-1.105696785E-1,-1.040347134E0,-2.301795910E0,2.528401120E0
2.006241667E0,-1.840183085E0,-1.821887732E0,-7.531427184E-1,2.696807863E0
2.016163667E0,-2.094638708E0,-1.307245631E0,1.569340641E0,2.925616602E0
2.026085667E0,-2.860477778E0,-1.419833769E0,2.724926455E0,4.198033496E0
2.036006667E0,-3.355460370E0,-8.904192621E-1,3.519079790E0,4.943266463E0
2.045928667E0,-3.108830661E0,-6.529176414E-1,4.081908210E0,5.172340298E0
2.055850667E0,-2.518221534E0,-2.866620862E-1,4.836884615E0,5.460683806E0
2.065771667E0,-2.390482092E0,9.122252834E-1,3.479129566E0,4.318669024E0
2.075693667E0,-1.165873990E0,1.801379793E0,1.303497566E0,2.510644782E0
2.085614667E0,6.270723635E-1,2.538028393E0,1.375455156E-1,2.617962307E0
2.095536667E0,1.617655599E0,2.739880709E0,-4.339247972E-2,3.182080898E0
2.105458667E0,2.852146080E0,2.272954811E0,8.846660404E-1,3.752824915E0
2.115379667E0,3.306192316E0,1.696709955E0,1.431361554E0,3.982276761E0
2.125301667E0,2.531111137E0,7.087035871E-1,1.214274756E0,2.895383834E0
2.135223667E0,2.228502524E-1,1.423124582E-1,1.107885837E0,1.139002238E0
2.145144667E0,4.447789836E-1,-5.642288285E-1,1.351534781E0,1.530630191E0
2.155066667E0,1.459043443E0,2.764411533E-1,1.786073098E0,2.322775191E0
2.164988667E0,5.815161216E0,-2.062891835E-1,2.972727946E0,6.534199770E0
2.174909667E0,6.007556831E0,-3.190410429E-1,3.421143313E0,6.920747635E0
2.184831667E0,4.048966459E0,5.504405093E-1,1.642807397E0,4.404081094E0
2.194752667E0,2.214066333E0,1.672418282E0,-4.715405202E-1,2.814502283E0
2.204674667E0,1.662218984E0,1.575277904E0,-2.422676130E-1,2.302860400E0
2.214596667E0,3.339397484E-1,-4.751131690E-1,4.977233286E-1,7.648377545E-1
2.224517667E0,-1.332264698E0,-5.490903872E-1,1.479392484E0,2.065195293E0
2.234439667E0,-1.269567343E0,-1.480319706E0,1.286959301E0,2.336538447E0
2.244361667E0,-5.480794036E-1,-3.053141195E-1,1.368320968E0,1.505293997E0
2.254282667E0,2.436125457E-1,2.935957146E-1,1.730125623E0,1.771688513E0
2.264204667E0,-5.975263828E-1,1.870921313E0,2.160125476E0,2.919507906E0
2.274125667E0,-2.910977256E0,2.156760111E0,5.676997358E-1,3.667108636E0
2.284047667E0,-5.192380124E0,2.225981205E0,2.146504095E-1,5.653483747E0
2.293969667E0,-5.168164465E0,3.395683367E0,1.090343459E0,6.279286450E0
2.303890667E0,-5.407777516E0,4.653413606E0,2.429742344E0,7.536707750E0
2.313812667E0,-6.004436172E0,4.267696179E0,3.313592552E0,8.077523136E0
2.323734667E0,-6.350814117E0,2.585327105E0,3.503364521E0,7.700020724E0
2.333655667E0,-6.851439273E0,2.231614412E0,3.553396806E0,8.034236233E0
2.343577667E0,-7.821082460E0,2.306945845E0,3.325285229E0,8.806182591E0
2.353498667E0,-8.708765225E0,2.631538820E0,1.956949058E0,9.305763693E0
2.363420667E0,-1.026239674E1,3.273320439E0,8.910387745E-1,1.080857824E1
2.373342667E0,-1.002909049E1,3.068372022E0,-7.709577227E-1,1.051627019E1
2.383263667E0,-7.742754328E0,3.543594534E0,-2.841356798E0,8.976670611E0
2.393185667E0,-6.306418548E0,4.004532298E0,-2.478848723E0,7.870951964E0
2.403107667E0,-1.850758359E0,1.075133389E0,-4.820514750E-1,2.193989958E0
2.413028667E0,4.610929492E0,-2.964293922E0,9.957416493E-1,5.571284472E0
2.422950667E0,5.328651239E0,-5.252448571E-1,7.498738325E-1,5.406728859E0
2.432871667E0,3.676023443E0,-9.471010011E-1,4.650366622E-1,3.824448687E0
2.442793667E0,4.021730713E0,-3.269929639E0,1.055170995E-1,5.184389224E0
2.452715667E0,5.029491314E0,-3.273076025E0,-1.411757010E0,6.164565467E0
2.462636667E0,6.190771732E0,-3.042577615E0,-4.309651413E0,8.133635625E0
2.472558667E0,7.001335570E0,-2.919377950E0,-6.413292786E0,9.933367593E0
2.482480667E0,7.327821872E0,-2.382780724E0,-7.891229752E0,1.102933019E1
2.492401667E0,6.107451248E0,-1.689581029E0,-9.932425493E0,1.178171129E1
2.502323667E0,4.343786581E0,-1.695903624E0,-1.013544667E1,1.115669530E1
2.512245667E0,2.623805292E0,-8.351689214E-1,-7.038346106E0,7.557789177E0
2.522166667E0,1.616612456E0,-8.258958220E-1,-4.618860947E0,4.962803259E0
2.532088667E0,1.687992341E0,-1.266683496E0,-3.481632174E0,4.071310332E0
2.542009667E0,2.791676515E0,-1.994344926E0,-1.919133360E0,3.931150252E0
2.551931667E0,4.070319906E0,-2.006731083E0,-3.332839832E-1,4.550335371E0
2.561853667E0,4.770354996E0,-1.786693926E0,1.734658384E-1,5.096925776E0
2.571775042E0,5.023008506E0,-9.497456968E-1,-2.483879668E-1,5.118039461E0
2.581697042E0,4.522036611E0,-2.533975688E0,-1.488966569E0,5.393224392E0
2.591618042E0,4.714907604E0,-2.500402145E0,-5.430233163E-1,5.364442088E0
2.601540042E0,3.082717581E0,-1.696182536E0,3.246581706E0,4.787533358E0
2.611462042E0,-1.033280189E0,-3.705575856E0,5.880031396E0,7.026644263E0
2.621383042E0,-6.393573051E0,-5.539340453E0,4.316736776E0,9.497172495E0
2.631305042E0,-8.945161137E0,-3.602252632E0,-1.629262322E-1,9.644619057E0
2.641227042E0,-6.863214980E0,-5.549797028E-1,-2.005924752E0,7.171851675E0
2.651148042E0,-4.349246711E0,1.002300471E-1,-1.030992174E0,4.470899001E0
2.661070042E0,-4.343539243E0,1.674938432E0,2.861561852E0,5.464456802E0
2.670991042E0,-1.729370162E0,-2.038761545E0,4.772495077E0,5.470281442E0
2.680913042E0,-4.518728256E-1,-3.628102587E0,7.645985248E0,8.475164178E0
2.690835042E0,1.207327241E-1,-2.882966169E0,9.683020111E0,1.010380863E1
2.700756042E0,-1.794136262E-1,-1.434697976E0,8.182622820E0,8.309384077E0
2.710678042E0,1.240751680E0,2.730351502E-1,4.429784212E0,4.608362083E0
2.720600042E0,2.026670088E0,8.346619678E-1,2.305141102E0,3.180837586E0
2.730521042E0,1.420157997E0,1.306581972E0,1.543638327E0,2.471198995E0
2.740443042E0,1.296647260E0,5.630114383E-1,6.614691943E-1,1.560710573E0
2.750364042E0,1.348552994E0,3.199128628E-2,7.459146827E-2,1.350993156E0
2.760286042E0,1.483911066E0,3.138995862E-1,1.922511882E-1,1.528883750E0
2.770208042E0,1.113874994E0,7.119944000E-1,6.029444128E-1,1.452995352E0
2.780129042E0,3.066028458E-1,5.637347388E-1,1.302777189E-1,6.548087086E-1
2.790051042E0,-2.934217599E-1,8.791639566E-1,-4.712437740E-1,1.039757802E0
2.799973042E0,-1.160840122E0,2.164493054E0,-4.930851710E-1,2.505137313E0
2.809894042E0,-1.555090976E0,3.799334790E0,1.891325757E-1,4.109625764E0
2.819816042E0,-1.568496303E0,4.683048465E0,1.155880806E0,5.072197158E0
2.829737042E0,-1.727070745E0,4.953762270E0,1.901069849E0,5.580017971E0
2.839659042E0,-1.652195979E0,5.867457544E0,2.264962252E0,6.502835042E0
2.849581042E0,-1.996317484E0,6.684625812E0,2.415492095E0,7.382689740E0
2.859502042E0,-1.715364034E0,6.621060730E0,2.555101093E0,7.301332793E0
2.869424042E0,-1.181102186E0,7.158455517E0,2.387992347E0,7.638127729E0
2.879345042E0,-1.576851682E0,7.483764775E0,1.929777486E0,7.887790411E0
2.889267042E0,-1.829136233E0,7.477192504E0,1.685733562E0,7.880091671E0
2.899189042E0,-2.131180882E0,7.655194613E0,1.511333338E0,8.088761646E0
2.909110042E0,-2.546112461E0,7.655478203E0,9.428073907E-1,8.122679419E0
2.919032042E0,-2.825557329E0,7.738559536E0,5.568993437E-1,8.257070593E0
2.928953042E0,-2.720664420E0,8.070096663E0,4.491000760E-1,8.528198281E0
2.938875042E0,-2.526720170E0,8.051472112E0,1.133142154E-1,8.439393230E0
2.948797042E0,-2.366076983E0,7.865092113E0,-5.801621988E-2,8.213486478E0
2.958718042E0,-2.244111958E0,7.668602278E0,-7.208038151E-2,7.990537840E0
2.968640042E0,-2.111360283E0,7.361872548E0,-1.990643638E-1,7.661242476E0
2.978562042E0,-1.943994552E0,7.162616980E0,-4.057342011E-1,7.432820263E0
2.988483042E0,-1.654525948E0,6.996285329E0,-5.177472648E-1,7.207879491E0
2.998405042E0,-1.047812713E0,6.570006936E0,-7.899246284E-1,6.699767424E0
3.008326042E0,-4.361971714E-1,5.492050511E0,-2.825628957E-1,5.516586678E0
3.018248042E0,2.074276364E-1,5.255338849E0,6.604044163E-1,5.300730765E0
3.028170042E0,1.020513086E0,4.115446377E0,2.071680200E0,4.719131773E0
3.038091042E0,5.157748820E0,-1.725584909E1,4.926536465E0,1.867183607E1
3.048013042E0,7.823488004E0,-4.790599927E1,5.819426175E0,4.888821384E1
3.057935042E0,5.556327199E0,-4.942994272E1,6.679914125E0,5.018778000E1
3.067856042E0,7.708741660E0,-3.500206439E1,6.736763095E0,3.646852323E1
3.077778042E0,7.965685272E0,-1.603521943E1,3.591490831E0,1.826141316E1
3.087699042E0,2.373154161E0,-3.792533308E0,-9.083382883E0,1.012536489E1
3.097621042E0,-1.622578662E0,1.871731153E0,-1.315264971E1,1.338388334E1
3.107543042E0,-2.040340878E0,-3.994466901E-1,-1.071773696E1,1.091752875E1
3.117464042E0,-1.096338902E0,-5.406129770E0,-7.979561884E0,9.700598226E0
3.127386042E0,-6.528208700E-1,-7.812786430E0,-4.379335313E0,8.980221861E0
3.137307042E0,1.042719130E0,-6.480632830E0,-7.832550019E-2,6.564449706E0
3.147229042E0,1.848670903E0,-5.214096683E0,1.578142747E0,5.752818688E0
3.157151042E0,1.827779387E0,-4.558312737E0,2.068780858E0,5.329056833E0
3.167072042E0,2.049694962E0,-3.844994527E0,2.589925940E0,5.068821236E0
3.176994042E0,1.315507455E0,-3.184287225E0,2.543212242E0,4.282309365E0
3.186915042E0,8.199024260E-1,-2.292066436E0,1.590655496E0,2.907919091E0
3.196837042E0,8.205818725E-1,-6.407998717E-1,5.713419664E-1,1.187607144E0
3.206759042E0,6.727753705E-1,8.713263488E-1,1.944444057E-1,1.117875186E0
3.216680042E0,-3.377234817E-2,5.849496067E-2,1.883236134E-1,2.000700260E-1
3.226602042E0,-6.028680336E-1,-1.395219330E0,6.504945552E-1,1.653248321E0
3.236524042E0,-1.128342979E0,-2.730770747E0,1.378397475E0,3.260405857E0
3.246445042E0,-2.328351333E0,-3.827621865E0,1.534899956E0,4.735802671E0
3.256367042E0,-2.956002278E0,-4.993047373E0,1.058754169E0,5.898256686E0
3.266288042E0,-3.410452556E0,-5.799011791E0,1.340298772E-1,6.728869772E0
3.276210042E0,-3.828748331E0,-5.704806715E0,2.245399515E-1,6.874194617E0
3.286132042E0,-4.551591947E0,-5.681290383E0,1.380475283E0,7.409437339E0
3.296053042E0,-5.971224571E0,-7.303975757E0,3.317021067E0,1.000031067E1
3.305975042E0,-6.411856125E0,-8.081084166E0,7.156175687E0,1.255494607E1
3.315896042E0,-4.989268903E0,-6.082602335E0,9.773199964E0,1.254616646E1
3.325818042E0,-1.135787727E0,-3.744542871E0,7.430460387E0,8.397818564E0
3.335740042E0,2.080853897E0,-1.706045619E0,1.974529881E0,3.337560913E0
3.345661042E0,4.044495093E0,-8.005674380E-1,-7.986267471E-1,4.199601584E0
3.355583042E0,4.319624424E0,4.559027267E-1,1.109972270E0,4.483195389E0
3.365504042E0,3.923919952E0,2.002733341E0,4.517455317E0,6.309951756E0
3.375426042E0,3.774779700E0,3.305381307E0,6.423883263E0,8.151121612E0
3.385348042E0,3.816822642E0,4.124598439E0,7.354199831E0,9.255522812E0
3.395269042E0,3.710903839E0,4.561226404E0,7.594134479E0,9.604502699E0
3.405191042E0,3.356655249E0,5.676381061E0,8.110586293E0,1.045323139E1
3.415113042E0,3.257805437E0,6.873792009E0,7.963497244E0,1.101270181E1
3.425034042E0,3.582589615E0,7.541695479E0,8.036676317E0,1.158879999E1
3.434956042E0,3.286062399E0,8.023207841E0,7.255882409E0,1.130565786E1
3.444877042E0,2.589233337E0,8.024522880E0,6.921712280E0,1.090904201E1
3.454799042E0,1.910687057E0,7.802543862E0,6.965711993E0,1.063257068E1
3.464721042E0,1.361145557E0,7.573575084E0,7.020967011E0,1.041660859E1
3.474642042E0,1.084614649E0,7.537934550E0,6.920066289E0,1.029000309E1
3.484564042E0,1.060154577E0,7.753502095E0,6.842185469E0,1.039500959E1
3.494485042E0,1.421466604E0,7.822674072E0,6.599005617E0,1.033255400E1
3.504407042E0,2.111658783E0,7.480882097E0,5.952533362E0,9.790574712E0
3.514329042E0,2.799922258E0,6.826767531E0,4.782213149E0,8.792831295E0
3.524250042E0,3.331557830E0,5.928386700E0,3.316531947E0,7.566004930E0
3.534172042E0,3.416408238E0,4.988242716E0,1.247536204E0,6.173391064E0
3.544093042E0,2.750854471E0,3.932389351E0,-1.992148127E0,5.196108206E0
3.554015042E0,1.355233438E0,2.462557211E0,-6.327017119E0,6.923293386E0
3.563937042E0,-1.061564487E0,7.973146319E-2,-1.246613981E1,1.251151142E1
3.573857917E0,-3.669815162E0,-3.466200787E0,-1.550481382E1,1.630586836E1
3.583779917E0,-4.646637268E0,-8.562854975E0,-1.208410730E1,1.552222189E1
3.593700917E0,-5.604730450E0,-1.369428899E1,-8.138444767E0,1.688729811E1
3.603622917E0,-6.350336984E0,-1.691913367E1,-6.054605867E0,1.905891172E1
3.613544917E0,-4.623994803E0,-1.688246929E1,-5.405267306E0,1.831982565E1
3.623465917E0,-9.531215867E-1,-1.203630514E1,-4.375276760E0,1.284227896E1
3.633387917E0,2.125131645E0,-5.823218679E0,-3.110469928E0,6.935494465E0
3.643308917E0,3.750775418E0,-1.302045702E0,-2.344120688E0,4.610698542E0
3.653230917E0,3.953404537E0,2.316232393E0,-1.907676911E0,4.963221849E0
3.663152917E0,1.865280212E0,4.898684422E0,-1.920230883E0,5.582442654E0
3.673073917E0,-1.634169890E0,5.874287676E0,-2.583702164E0,6.622181197E0
3.682995917E0,-4.999741266E0,4.312560695E0,-2.905707745E0,7.213787491E0
3.692916917E0,-4.680716595E0,4.524470222E-1,-1.809805630E0,5.038770939E0
3.702838917E0,-2.439439367E0,-3.021946884E0,-2.842360765E-2,3.883791356E0
3.712760917E0,-2.012074853E0,-5.908824255E0,9.972835600E-1,6.321172660E0
3.722681917E0,-3.295764976E0,-9.853074099E0,-1.594690075E0,1.051133542E1
3.732603917E0,-3.014941335E0,-1.241627709E1,-5.062861959E0,1.374359412E1
3.742524917E0,-1.789956380E0,-8.585498902E0,-4.691674862E0,9.946182597E0
3.752446917E0,-9.871681693E-1,-8.397426134E-1,9.522860196E0,9.610646959E0
3.762368917E0,-3.744846633E0,5.739122854E0,2.679127788E1,2.765382392E1
3.772289917E0,-8.784118878E0,9.810463099E0,2.303647431E1,2.653460155E1
3.782211917E0,-1.106072644E1,1.183076966E1,4.616102231E0,1.684087825E1
3.792132917E0,-6.684008346E0,1.031737226E1,-1.184753480E1,1.707302606E1
3.802054917E0,1.948378502E0,3.477808680E0,-1.066834085E1,1.138880277E1
3.811976917E0,6.083880537E0,-7.802775997E-1,4.767930740E-1,6.152216442E0
3.821897917E0,6.597076036E0,-7.577763444E-1,1.103776560E1,1.288130066E1
3.831819917E0,3.632845264E0,1.552371436E-1,1.742002019E1,1.779547040E1
3.841740917E0,1.358954606E0,-1.753463030E-1,1.779637038E1,1.784904207E1
3.851662917E0,1.673316707E-1,-1.315396065E0,1.214798696E1,1.222014132E1
3.861584917E0,8.785859594E-1,-2.788516095E0,3.814451011E0,4.806014130E0
3.871505917E0,8.286760269E-1,-3.396710722E0,8.972344843E-1,3.609622890E0
3.881427917E0,7.535812595E-1,-3.290915295E0,2.016631442E0,3.932532336E0
3.891348917E0,9.694575378E-1,-3.490834522E0,1.878163090E0,4.080841846E0
3.901270917E0,6.513046870E-1,-2.451056907E0,3.640244038E-1,2.562106853E0
3.911192917E0,1.235898929E0,-9.675200629E-1,5.063820317E-2,1.570383858E0
3.921113917E0,2.154784191E0,-4.608395308E-1,9.987091843E-1,2.419274275E0
3.931035917E0,2.105339112E0,-2.103769720E-1,1.727026598E0,2.731177790E0
3.940956917E0,1.435756614E0,5.115179336E-1,2.174685920E0,2.655617914E0
3.950878917E0,4.443114987E-1,1.351691487E0,1.551708362E0,2.105298417E0
3.960800917E0,3.724132580E-1,1.459821122E0,1.109513848E0,1.871039904E0
3.970721917E0,1.788781674E-1,1.374539482E0,-7.412281394E-2,1.388110362E0
3.980643917E0,-3.608848876E-1,1.344885913E0,-1.884417272E0,2.343071589E0
3.990564917E0,-8.874485841E-1,2.125542412E0,-3.278527969E0,4.006774411E0
4.000486917E0,-1.583245174E0,3.078905196E0,-4.718787816E0,5.852630258E0
4.010408917E0,-6.478388961E-1,3.043272849E0,-5.542938829E0,6.356522298E0
4.020329917E0,4.114307047E-1,2.882674978E0,-6.164602518E0,6.817727954E0
4.030251917E0,1.133152240E0,2.803837554E0,-5.668661567E0,6.424894006E0
4.040172917E0,2.156629865E0,3.056465921E0,-3.756968204E0,5.301683354E0
4.050094917E0,2.808086141E0,3.041208197E0,-1.988206080E0,4.592086507E0
4.060016917E0,2.749244733E0,3.252271632E0,-1.216350956E-1,4.260330089E0
4.069937917E0,2.298018463E0,3.553941767E0,1.650912077E0,4.542785668E0
4.079859917E0,1.323773371E0,3.632383919E0,2.178005970E0,4.437375224E0
4.089780917E0,4.141467364E-1,3.428972150E0,2.220556012E0,4.106121835E0
4.099702917E0,-1.371641310E-1,2.320959867E0,2.000133231E0,3.066953153E0
4.109624917E0,-1.018659372E0,8.189551771E-2,1.503402029E0,1.817853529E0
4.119545917E0,-1.611952810E0,-2.814972407E0,7.641305137E-1,3.332620133E0
4.129467917E0,-1.481473654E0,-5.145695955E0,-4.254960358E-2,5.354882026E0
4.139388917E0,-8.259618956E-1,-6.250420933E0,-2.190113214E0,6.674321747E0
4.149310917E0,5.354915178E-1,-5.866471703E0,-6.466912923E0,8.747754235E0
4.159232917E0,2.828961285E0,-4.037228758E0,-1.245138612E1,1.339176068E1
4.169153917E0,4.845640236E0,-2.045335570E0,-1.613025774E1,1.696610862E1
4.179075917E0,6.005871078E0,-1.466845967E0,-1.227058904E1,1.374006841E1
4.188996917E0,5.745551283E0,-3.104473901E0,-5.092534239E0,8.281486746E0
4.198918917E0,4.013005790E0,-5.416340178E0,-2.572353888E-1,6.745897008E0
4.208840917E0,1.887688496E0,-6.815809264E0,1.742183751E0,7.283805874E0
4.218761917E0,-3.026840419E-1,-7.527687889E0,1.967369674E0,7.786414195E0
4.228683917E0,-1.086334462E0,-7.514989491E0,1.146706525E0,7.679200835E0
4.238604917E0,-1.160998582E0,-7.051733891E0,-8.775030550E-1,7.200338894E0
4.248526917E0,-2.083982742E-1,-7.851996689E0,-3.075042526E0,8.435233748E0
4.258448917E0,1.168763976E0,-8.864283035E0,-4.265261983E0,9.906259775E0
4.268369917E0,2.106950751E0,-7.811695924E0,-5.188329173E0,9.611482419E0
4.278291917E0,3.136564297E0,-6.126383947E0,-6.233042423E0,9.285549726E0
4.288212917E0,3.970765212E0,-5.239199950E0,-5.783389785E0,8.755786081E0
4.298134917E0,4.104574357E0,-5.148169327E0,-3.163759990E0,7.304830959E0
4.308055917E0,3.462197784E0,-5.325784349E0,-8.494812973E-1,6.408776085E0
4.317977917E0,2.182539170E0,-4.683200492E0,5.230917661E-1,5.193213752E0
4.327899917E0,5.344055437E-1,-3.652010683E0,1.781189503E0,4.098220023E0
4.337820917E0,-1.114611158E0,-2.630000417E0,2.148024956E0,3.573971382E0
4.347742917E0,-2.315428401E0,-1.950126527E0,2.291626725E0,3.796808555E0
4.357663917E0,-3.795604851E0,-2.153182785E0,2.811951150E0,5.191327533E0
4.367585917E0,-5.820778052E0,-3.119975454E0,3.695308145E0,7.567760980E0
4.377507917E0,-7.675131279E0,-4.426110699E0,4.340964714E0,9.866208528E0
4.387428917E0,-8.691179724E0,-6.494127034E0,4.540834240E0,1.176135479E1
4.397350917E0,-9.088621404E0,-7.448365731E0,3.974332598E0,1.240469712E1
4.407271917E0,-8.263913736E0,-6.304930431E0,3.154745922E0,1.086263503E1
4.417193917E0,-6.483838273E0,-4.605315580E0,2.120550936E0,8.230785298E0
4.427115917E0,-4.178848906E0,-3.423040735E0,2.079548506E0,5.788307874E0
4.437036917E0,-3.121587824E0,-2.610104681E0,1.805973950E0,4.451797266E0
4.446958917E0,-2.900052318E-1,-2.879294702E0,3.089731901E0,4.233306537E0
4.456879917E0,3.053348186E0,-3.583066163E0,3.081138833E0,5.626252285E0
4.466801917E0,6.000792772E0,-4.868333865E0,3.663254586E0,8.551585974E0
4.476722917E0,7.380790629E0,-4.531154759E0,3.086032367E0,9.194075785E0
4.486644917E0,7.150109786E0,-2.069043691E0,2.637858783E0,7.897044428E0
4.496566917E0,6.330069950E0,6.634858990E-1,4.049597374E0,7.543821180E0
4.506487917E0,5.862081614E0,2.263244925E0,7.179639394E0,9.541147744E0
4.516409917E0,5.609266135E0,3.669140101E0,8.761002495E0,1.103093923E1
4.526330917E0,5.648806762E0,4.994675823E0,9.627720069E0,1.222901460E1
4.536252917E0,5.476864707E0,6.805539215E0,9.449677030E0,1.286886969E1
4.546174917E0,4.771082974E0,8.102965032E0,7.933837243E0,1.230313165E1
4.556095917E0,4.280557422E0,8.679934943E0,7.644762011E0,1.233315972E1
4.566017917E0,3.499728430E0,8.987642328E0,8.164532120E0,1.263666880E1
4.575938292E0,2.606620618E0,8.469531659E0,8.196367870E0,1.207095207E1
4.585860292E0,1.984279236E0,8.002935544E0,7.851855186E0,1.138577934E1
4.595782292E0,1.628189650E0,7.882737840E0,7.814847574E0,1.121875216E1
4.605703292E0,1.391346134E0,7.846676892E0,7.685161593E0,1.107103839E1
4.615625292E0,1.547448958E0,7.700975388E0,7.339661899E0,1.075036078E1
4.625546292E0,2.081426632E0,7.335855362E0,6.895133176E0,1.028056284E1
4.635468292E0,2.715765915E0,6.621842503E0,6.156161478E0,9.440471745E0
4.645389292E0,3.236764816E0,5.706818742E0,4.836388187E0,8.150771578E0
4.655311292E0,3.340620722E0,4.633490388E0,2.419894756E0,6.203617543E0
4.665233292E0,2.819116621E0,3.656518301E0,-1.317852188E0,4.801487165E0
4.675154292E0,1.504796443E0,2.648692796E0,-6.338807445E0,7.032813497E0
4.685076292E0,-1.584817636E0,1.331906848E0,-1.390419233E1,1.405746020E1
4.694997292E0,-5.648050132E0,-1.417228834E0,-1.877513347E1,1.965743230E1
4.704919292E0,-8.360061257E0,-6.334148383E0,-1.283028335E1,1.657191090E1
4.714841292E0,-9.720373294E0,-1.216127885E1,-5.328909101E0,1.645538308E1
4.724762292E0,-9.851104757E0,-1.713589112E1,-1.366245791E0,1.981286595E1
4.734684292E0,-6.459916145E0,-1.784203714E1,-2.087009845E0,1.908990351E1
4.744605292E0,-2.761710119E-1,-1.210191207E1,-3.171036850E0,1.251351353E1
4.754527292E0,3.068038438E0,-5.451673733E0,-3.214954117E0,7.033458347E0
4.764449292E0,4.406152398E0,-1.038209977E0,-3.293774584E0,5.598304200E0
4.774370292E0,4.948737173E0,1.785335033E0,-3.657641551E0,6.407477078E0
4.784292292E0,2.250790941E0,3.849342517E0,-4.884776235E0,6.613965266E0
4.794213292E0,-2.700663434E0,4.302525703E0,-6.117708433E0,7.951834184E0
4.804135292E0,-6.206090267E0,2.379341392E0,-5.467457707E0,8.606388072E0
4.814056292E0,-4.641826471E0,-1.465653720E0,-4.330248522E0,6.515039991E0
4.823978292E0,-2.853687991E0,-5.351864685E0,-4.833190929E0,7.755367517E0
4.833900292E0,-2.948892941E0,-9.859434700E0,-3.082220567E0,1.074264892E1
4.843821292E0,-1.156281340E0,-1.440397958E1,-1.090726744E0,1.449142157E1
4.853743292E0,2.560234948E0,-1.213090023E1,-2.413106723E0,1.263078095E1
4.863664292E0,4.732670860E0,-2.381647534E0,8.461096466E-2,5.298827933E0
4.873586292E0,2.900006710E0,7.338939183E0,2.003938102E1,2.153710423E1
4.883507292E0,-5.991638371E0,1.209316230E1,3.436976988E1,3.692459054E1
4.893429292E0,-1.468369869E1,1.247085150E1,2.081427742E1,2.836136966E1
4.903351292E0,-1.736636848E1,1.154287148E1,-6.329855942E0,2.179210206E1
4.913272292E0,-9.366485184E0,7.472202491E0,-2.022270058E1,2.350579660E1
4.923194292E0,1.140022573E0,1.085113417E0,-5.525871391E0,5.745639845E0
4.933115292E0,6.191635365E0,-1.366306602E0,7.287518769E0,9.659765631E0
4.943037292E0,5.088801377E0,-1.119672800E0,1.504738614E1,1.592398808E1
4.952959292E0,1.587261772E0,-8.278084463E-1,1.764538826E1,1.773596328E1
4.962880292E0,9.096036842E-1,-2.201947979E0,1.572619993E1,1.590563793E1
4.972802292E0,5.020106533E-1,-2.599289671E0,9.405666207E0,9.771124720E0
4.982723292E0,5.756825007E-1,-2.631075720E0,3.903894115E0,4.742821845E0
4.992645292E0,9.623176490E-1,-3.048396179E0,1.473479780E0,3.519931417E0
5.002566292E0,1.069089122E0,-2.914575632E0,1.403605114E0,3.407023625E0
5.012488292E0,1.318119698E0,-2.982773463E0,1.631323904E0,3.646312486E0
5.022410292E0,2.220688597E0,-2.743068611E0,1.695933591E0,3.915619235E0
5.032331292E0,3.446016491E0,-2.441887304E0,1.559787168E0,4.502308216E0
5.042253292E0,4.438219113E0,-1.829796091E0,1.246269697E0,4.959751082E0
5.052174292E0,4.676494905E0,-9.545749122E-1,1.594129912E0,5.032103739E0
5.062096292E0,4.265516337E0,1.401811481E-2,1.206206914E0,4.432805121E0
5.072017292E0,3.955540232E0,5.539149249E-1,8.205842113E-1,4.077557936E0
5.081939292E0,3.388650336E0,6.429797137E-1,7.494294441E-1,3.529591832E0
5.091861292E0,1.944597254E0,8.460108286E-1,-5.269183302E-1,2.185139750E0
5.101782292E0,2.215659115E-1,1.630279738E0,-2.589445299E0,3.067919561E0
5.111704292E0,-1.318644778E0,2.671834906E0,-4.972288588E0,5.796652450E0
5.121625292E0,-2.735050032E0,3.561206932E0,-7.146379262E0,8.439989932E0
5.131547292E0,-3.253378510E0,4.191058477E0,-7.843331115E0,9.469281170E0
5.141469292E0,-2.446123758E0,4.623823771E0,-7.209494108E0,8.907304474E0
5.151390292E0,-1.408212281E0,4.741120672E0,-5.825751693E0,7.642033096E0
5.161312292E0,-1.367023471E-1,4.545265844E0,-3.724682218E0,5.878042765E0
5.171233292E0,9.415233421E-1,4.383241253E0,-8.620748842E-1,4.565352472E0
5.181155292E0,1.502068571E0,4.454105998E0,1.706919047E0,5.000884209E0
5.191076292E0,1.176498966E0,4.387893298E0,3.580061864E0,5.783995190E0
5.200998292E0,4.830124649E-1,3.911371534E0,5.094697709E0,6.441123587E0
5.210920292E0,-5.116340008E-1,2.518515649E0,5.465157412E0,6.039257899E0
5.220841292E0,-1.243173304E0,6.507600188E-2,4.857992772E0,5.014958476E0
5.230763292E0,-1.353676470E0,-2.671541376E0,3.671811694E0,4.738330342E0
5.240684292E0,-1.062804681E0,-4.692109310E0,2.068549308E0,5.236825356E0
5.250606292E0,-6.407665426E-1,-5.906044489E0,-4.916546497E-1,5.961012294E0
5.260527292E0,1.668584847E-1,-5.982718443E0,-4.723005120E0,7.624141859E0
5.270449292E0,1.501269403E0,-4.955434574E0,-1.271687076E1,1.373058424E1
5.280371292E0,2.810663009E0,-2.925015836E0,-2.075166544E1,2.114443574E1
5.290292292E0,4.156312568E0,-1.495848742E0,-1.606237741E1,1.665870540E1
5.300214292E0,5.199198563E0,-3.515479952E0,-5.329910145E0,8.233966671E0
5.310135292E0,5.950849364E0,-7.071962918E0,1.314885603E0,9.335640943E0
5.320057292E0,5.326353284E0,-8.638126182E0,5.042624745E0,1.133204869E1
5.329978292E0,2.954832543E0,-7.755641007E0,5.970608275E0,1.022395060E1
5.339900292E0,1.088128534E0,-6.485793582E0,3.311629934E0,7.363181032E0
5.349822292E0,2.160043323E-1,-5.054812682E0,2.903259516E-2,5.059509068E0
5.359743292E0,-1.061195966E0,-3.294711893E0,-3.202822899E0,4.715860245E0
5.369665292E0,-1.262835151E0,-3.409643594E0,-5.963609158E0,6.984630001E0
5.379586292E0,8.518589213E-1,-6.689999987E0,-5.810604481E0,8.901959778E0
5.389508292E0,2.897386280E0,-8.183344367E0,-4.642250102E0,9.844412542E0
5.399429292E0,3.535392937E0,-5.995297558E0,-5.162610195E0,8.665745211E0
5.409351292E0,3.774830278E0,-4.206993309E0,-6.004999259E0,8.246705550E0
5.419273292E0,3.985855122E0,-4.264135809E0,-4.342458093E0,7.275083336E0
5.429194292E0,3.405290050E0,-4.837603823E0,-2.270117742E0,6.336548401E0
5.439116292E0,2.353467463E0,-5.171648237E0,-1.275565417E0,5.823385760E0
5.449037292E0,1.127227549E0,-4.812713980E0,8.381267354E-2,4.943670940E0
5.458959292E0,-2.858089775E-2,-3.760365436E0,1.958174635E0,4.239765675E0
5.468880292E0,-1.491848954E0,-2.336333367E0,3.626703349E0,4.564761120E0
5.478802292E0,-2.696897242E0,-2.004354774E0,3.928367051E0,5.169406203E0
5.488724292E0,-3.998278701E0,-2.926906825E0,3.864928855E0,6.284161932E0
5.498645292E0,-5.719975562E0,-4.234897977E0,4.263413093E0,8.296334884E0
5.508567292E0,-6.868697330E0,-5.734511155E0,4.246673684E0,9.904436308E0
5.518488292E0,-7.162084883E0,-6.331250503E0,3.938054134E0,1.033868769E1
5.528410292E0,-6.542254881E0,-6.187368652E0,3.652719365E0,9.717355017E0
5.538331292E0,-5.287393870E0,-6.363187995E0,2.574598926E0,8.664597800E0
5.548253292E0,-3.588887359E0,-6.242614315E0,2.179111093E-2,7.200751406E0
5.558175292E0,-1.761975114E0,-5.674363772E0,-2.215556788E0,6.341265836E0
5.568096292E0,3.038599169E-1,-5.286103975E0,-3.492234346E0,6.342785414E0
5.578018542E0,3.388332539E0,-4.725864701E0,-1.841751308E0,6.099724785E0
5.587939542E0,4.665638088E0,-3.083540869E0,1.222446679E0,5.724576747E0
5.597861542E0,4.843901859E0,-1.028643932E0,4.978394836E0,7.021816624E0
5.607782542E0,4.773307255E0,-2.198020989E-1,7.409049638E0,8.816279921E0
5.617704542E0,5.252340982E0,-2.505461740E-1,1.028107274E1,1.154774073E1
5.627626542E0,5.452957197E0,4.921040082E-1,9.577894190E0,1.103235993E1
5.637547542E0,5.631925850E0,1.991082764E0,7.156652235E0,9.322052916E0
5.647469542E0,5.698747830E0,3.496358387E0,7.196294019E0,9.822774374E0
5.657390542E0,5.225606343E0,5.083928307E0,7.803636707E0,1.067942108E1
5.667312542E0,4.561933625E0,6.559028204E0,8.460401232E0,1.163660081E1
5.677233542E0,3.781047330E0,7.632851817E0,8.602530087E0,1.210620790E1
5.687155542E0,3.129024605E0,8.489537323E0,8.612239974E0,1.249134566E1
5.697077542E0,2.808114500E0,9.289054016E0,8.966950201E0,1.321280544E1
5.706998542E0,2.957830118E0,9.579191687E0,9.136300185E0,1.356398369E1
5.716920542E0,2.972965928E0,8.967795709E0,8.539449155E0,1.273507276E1
5.726841542E0,2.769602399E0,8.795702212E0,7.532241116E0,1.190670950E1
5.736763542E0,2.525673518E0,9.137762573E0,7.114273955E0,1.185287414E1
5.746684542E0,2.864992413E0,8.741117869E0,6.925333461E0,1.151414637E1
5.756606542E0,3.199401400E0,7.977062200E0,6.339351820E0,1.067975057E1
5.766528542E0,3.357983444E0,6.940841446E0,5.374360678E0,9.398674666E0
5.776449542E0,3.388965793E0,5.683971916E0,3.675180275E0,7.569648337E0
5.786371542E0,3.073574582E0,4.357203602E0,1.172413808E0,5.459545592E0
5.796292542E0,1.630285000E0,3.282778895E0,-1.740191604E0,4.057429392E0
5.806214542E0,-7.962270498E-1,2.287944734E0,-5.498631552E0,6.008628593E0
5.816135542E0,-3.985858045E0,3.926405311E-1,-9.089178643E0,9.932492102E0
5.826057542E0,-8.347575113E0,-2.772546179E0,-1.251321574E1,1.529541078E1
5.835978542E0,-1.098485297E1,-8.749489328E0,-1.331465968E1,1.935202110E1
5.845900542E0,-9.923880372E0,-1.586535431E1,-8.600716866E0,2.059527129E1
5.855822542E0,-7.413995798E0,-2.020896430E1,-3.927557212E0,2.188139113E1
5.865743542E0,-2.585571519E0,-1.960952179E1,-4.965881794E0,2.039309949E1
5.875665542E0,2.316512475E0,-1.395417433E1,-5.908837704E0,1.532969583E1
5.885586542E0,3.690480976E0,-7.128598464E0,-5.279300739E0,9.607683498E0
5.895508542E0,4.776361548E0,-9.615599960E-1,-5.032624252E0,7.004679445E0
5.905429542E0,5.714489120E0,4.976074076E0,-4.157125331E0,8.642823041E0
5.915351542E0,5.070292600E0,1.005057667E1,-1.234247822E0,1.132454530E1
5.925273542E0,3.424974993E0,1.234399148E1,-1.198159391E0,1.286624130E1
5.935194542E0,1.207246549E0,1.071562612E1,-2.478273357E0,1.106453461E1
5.945116542E0,-1.803088641E0,5.160101155E0,-2.564720932E0,6.037844486E0
5.955037542E0,-6.900778663E-1,-1.555805506E0,-2.008354855E-1,1.713789114E0
5.964959542E0,-8.064772189E-2,-6.803355280E0,1.715476593E0,7.016766140E0
5.974880542E0,-3.119681924E0,-1.041221643E1,5.349465573E-1,1.088268506E1
5.984802542E0,-7.344691674E0,-1.453279725E1,-8.754347779E0,1.848743619E1
5.994723542E0,-6.622680994E0,-1.896228179E1,-8.881939872E0,2.196171419E1
6.004645542E0,-5.323493410E0,-1.698821150E1,3.108382764E0,1.807210435E1
6.014567542E0,-5.835565075E0,-5.438988783E0,2.122262358E1,2.267236578E1
6.024488542E0,-8.153618292E0,6.914610837E0,2.882780228E1,3.074630902E1
6.034410542E0,-9.132798287E0,1.324893931E1,2.166361123E1,2.698618997E1
6.044331542E0,-9.781693629E0,1.603169707E1,3.412641461E0,1.908776998E1
6.054253542E0,-8.687045158E0,1.519748651E1,-1.811552545E1,2.519128047E1
6.064174542E0,-1.243372986E0,7.314897187E0,-1.472321651E1,1.648717082E1
6.074096542E0,5.640907173E0,9.971438116E-1,7.071879888E-1,5.771849302E0
6.084018542E0,7.451177073E0,-2.865451419E-1,1.295273106E1,1.494574822E1
6.093939542E0,4.151457917E0,-2.983015537E-2,1.937327790E1,1.981311155E1
6.103861542E0,8.865614153E-1,-9.732415634E-1,1.981942748E1,1.986310388E1
6.113782542E0,-9.015625933E-1,-2.255150625E0,1.508941593E1,1.528361844E1
6.123704542E0,-1.189792172E0,-2.574807964E0,6.219596751E0,6.835833907E0
6.133625542E0,-1.242680384E0,-4.927959092E0,-9.412847757E-1,5.168660598E0
6.143547542E0,-1.505685512E0,-5.290113410E0,-1.316572817E0,5.655594818E0
6.153468542E0,-1.833495625E0,-3.963381933E0,-7.024165146E-1,4.423063589E0
6.163390542E0,-1.493585869E0,-2.650330017E0,-7.744391549E-1,3.139236205E0
6.173312542E0,-5.433732721E-1,-7.252471143E-1,-4.351825333E-1,1.005296835E0
6.183233542E0,4.136513311E-1,1.096072268E0,1.091717262E0,1.601352061E0
6.193155542E0,2.014494577E0,1.992162160E0,3.401526489E0,4.426881626E0
6.203076542E0,4.074742155E0,1.650133958E0,5.119293437E0,6.747861217E0
6.212998542E0,4.982879065E0,1.083216580E0,4.944499111E0,7.102852483E0
6.222919542E0,4.266964107E0,8.221582818E-1,2.150805307E0,4.848596746E0
6.232841542E0,3.730241750E0,4.732303655E-1,-7.592843413E-1,3.836034829E0
6.242762542E0,3.211679384E0,5.387086558E-1,-3.091833975E0,4.490493159E0
6.252684542E0,2.695675466E0,9.352510339E-1,-4.679194565E0,5.480531224E0
6.262606542E0,1.836095443E0,1.140394748E0,-5.310202689E0,5.733236368E0
6.272527542E0,1.363248801E0,1.101880893E0,-6.055127438E0,6.303741515E0
6.282449542E0,1.613336846E0,1.391006411E0,-6.295269077E0,6.645913584E0
6.292370542E0,2.068915344E0,1.822300546E0,-5.325632322E0,5.996961698E0
6.302292542E0,2.024111347E0,2.868000805E0,-2.737852895E0,4.451774235E0
6.312213542E0,1.278118019E0,3.850744679E0,-7.624652267E-2,4.058033241E0
6.322135542E0,1.266580001E-1,4.835031048E0,1.631495374E0,5.104443617E0
6.332056542E0,-1.138724637E0,5.706186658E0,2.382019271E0,6.287390220E0
6.341978542E0,-2.500177027E0,6.121581629E0,2.352722966E0,7.018543450E0
6.351900542E0,-3.268174012E0,5.696742235E0,2.559516910E0,7.048755939E0
6.361821542E0,-3.575783748E0,3.289869229E0,1.464307983E0,5.074807073E0
6.371743542E0,-2.131334664E0,-1.019940351E0,-8.110886255E-1,2.498145417E0
6.381664542E0,-2.765823635E-1,-4.368904465E0,-2.750325590E0,5.169924069E0
6.391586542E0,1.675154487E0,-5.836760831E0,-4.866892234E0,7.782066536E0
6.401507542E0,3.874415085E0,-6.020728853E0,-8.037268056E0,1.076373290E1
6.411429542E0,5.756891373E0,-5.635899618E0,-1.089666176E1,1.355147226E1
6.421350542E0,6.520944119E0,-5.150590659E0,-1.166290897E1,1.432043092E1
6.431272542E0,4.765481926E0,-4.624233661E0,-8.758511581E0,1.099112733E1
6.441194542E0,1.831715147E0,-4.858438622E0,-3.626996294E0,6.333617319E0
6.451115542E0,1.243062499E-1,-5.610917974E0,4.850382328E-2,5.612504358E0
6.461037542E0,-1.273523715E0,-6.578940312E0,1.603529603E0,6.890255835E0
6.470958542E0,-2.907368939E0,-6.683568050E0,7.216525385E-1,7.324183123E0
6.480880542E0,-3.801515509E0,-6.253687187E0,-2.289463255E0,7.668230930E0
6.490801542E0,-2.881595582E0,-6.096981223E0,-5.375226066E0,8.623794315E0
6.500723542E0,-7.204208225E-2,-7.014815741E0,-6.015866894E0,9.241400566E0
6.510644542E0,2.214706311E0,-9.117826492E0,-4.427858724E0,1.037524057E1
6.520566542E0,2.245756780E0,-1.057165948E1,-3.319523968E0,1.130586782E1
6.530488542E0,1.287048617E0,-8.472434801E0,-5.098459808E0,9.971606592E0
6.540409542E0,1.310134302E0,-4.880006661E0,-7.068528264E0,8.688786378E0
6.550331542E0,1.806470086E0,-3.131940612E0,-5.353818240E0,6.460321657E0
6.560252542E0,2.300587145E0,-2.840268046E0,-2.085531815E0,4.208237961E0
6.570174542E0,2.554792068E0,-2.833223906E0,-4.084449703E-1,3.836788697E0
6.580096458E0,1.980226678E0,-2.562331760E0,4.036696954E-1,3.263401747E0
6.590018458E0,1.179443916E0,-2.292261733E0,8.682185537E-1,2.720175593E0
6.599939458E0,-1.336088777E-1,-1.689747090E0,2.540129882E0,3.053744649E0
6.609861458E0,-1.951290123E0,-1.819016165E0,4.667272092E0,5.375851722E0
6.619783458E0,-3.455646563E0,-4.307290015E0,4.019993505E0,6.830416402E0
6.629704458E0,-4.309158785E0,-8.011409329E0,2.084572141E0,9.332575737E0
6.639626458E0,-5.085383095E0,-1.069357977E1,4.579330261E-1,1.185004102E1
6.649547458E0,-4.878322663E0,-1.219989737E1,2.207455471E-2,1.313910252E1
6.659469458E0,-4.392700294E0,-1.136132128E1,3.179889826E-1,1.218509557E1
6.669390458E0,-3.178132446E0,-8.807625854E0,5.152274072E-1,9.377646736E0
6.679312458E0,-1.870886230E0,-6.146394289E0,9.538235450E-1,6.495241134E0
6.689233458E0,3.471904162E-1,-4.404722754E0,3.494332619E0,5.633159342E0
6.699155458E0,3.356201212E0,-3.732934978E0,7.739545376E0,9.224936464E0
6.709077458E0,6.185017487E0,-3.354349984E0,4.870679183E0,8.557430738E0
6.718998458E0,7.574891292E0,-3.372872794E0,2.043021827E0,8.539858731E0
6.728920458E0,6.812194515E0,-1.972738879E0,3.228215894E0,7.792244264E0
6.738841458E0,4.738331257E0,9.544480276E-1,5.967043812E0,7.679086274E0
6.748763458E0,4.141460932E0,2.865791143E0,7.046073201E0,8.660924032E0
6.758684458E0,4.450664620E0,3.816364220E0,7.717690238E0,9.692047979E0
6.768606458E0,4.392528678E0,4.794320394E0,8.059550040E0,1.035548951E1
6.778527458E0,4.136499570E0,6.034214287E0,8.388907911E0,1.113086460E1
6.788449458E0,3.836321937E0,7.193630027E0,8.830487298E0,1.201845185E1
6.798370458E0,3.251575229E0,8.261665481E0,9.398954773E0,1.292935454E1
6.808292458E0,2.514434878E0,9.292272323E0,9.692342327E0,1.366053467E1
6.818214458E0,1.812420505E0,9.986029258E0,1.006292599E1,1.429224013E1
6.828135458E0,1.376450937E0,1.033416429E1,1.081226656E1,1.501980948E1
6.838057458E0,1.258483361E0,1.023087323E1,1.081898969E1,1.494339604E1
6.847978458E0,1.353509386E0,9.562466311E0,9.975194367E0,1.388442481E1
6.857900458E0,1.514682331E0,8.854319964E0,8.998997621E0,1.271515642E1
6.867821458E0,1.769792549E0,8.336543171E0,8.225245514E0,1.184418767E1
6.877743458E0,2.064049291E0,7.619885032E0,7.320752004E0,1.076644590E1
6.887664458E0,2.410884489E0,6.519654808E0,6.111499860E0,9.255738402E0
6.897586458E0,2.803979934E0,5.159793591E0,4.127875219E0,7.178100529E0
6.907507458E0,2.866704185E0,3.975342997E0,1.761751458E0,5.208177515E0
6.917429458E0,2.434056128E0,2.621119666E0,-3.727225757E-1,3.596362003E0
6.927351458E0,1.139854465E0,1.460253816E0,-3.189726305E0,3.688626209E0
6.937272458E0,-1.566650045E0,1.082331312E-1,-7.157921081E0,7.328160818E0
6.947194458E0,-5.740148456E0,-1.888415013E0,-1.210674187E1,1.353102414E1
6.957115458E0,-8.858448683E0,-6.107006274E0,-1.320979337E1,1.703720281E1
6.967037458E0,-9.914730649E0,-1.172604603E1,-8.459831713E0,1.753199338E1
6.976958458E0,-1.010167900E1,-1.568124186E1,-6.057758101E0,1.961228437E1
6.986880458E0,-6.158912008E0,-1.610536029E1,-8.345304054E0,1.915617204E1
6.996801458E0,1.002869698E0,-1.205361407E1,-9.825544238E0,1.558321787E1
7.006723458E0,5.792998515E0,-6.068976569E0,-7.752061926E0,1.142303692E1
7.016644458E0,8.916523229E0,-6.688320082E-1,-5.518176455E0,1.050723532E1
7.026566458E0,1.024545151E1,3.281424680E0,-3.588847305E0,1.134093689E1
7.036488458E0,5.528230158E0,5.772662483E0,-4.203945740E0,9.030953472E0
7.046409458E0,-2.797397723E0,5.020270840E0,-4.253322261E0,7.149776471E0
7.056331458E0,-8.586028075E0,1.489513283E0,-2.096011634E0,8.962800494E0
7.066252458E0,-6.717469037E0,-3.862757199E0,-7.487008810E-1,7.784975045E0
7.076174458E0,-3.836026360E0,-8.922190350E0,-1.502063747E0,9.827348288E0
7.086095458E0,-5.683205931E0,-1.349382772E1,-1.886042505E0,1.476276981E1
7.096017458E0,-5.666528503E0,-1.767683926E1,-3.295342222E0,1.885310245E1
7.105938458E0,-2.678980204E0,-1.606516186E1,-6.533586969E0,1.754862157E1
7.115860458E0,-1.478530166E0,-5.844037106E0,8.173370771E0,1.015592492E1
7.125781458E0,-6.822863345E0,5.610226248E0,3.118011141E1,3.240718208E1
7.135703458E0,-1.258983649E1,1.366218076E1,3.011809332E1,3.538726764E1
7.145625458E0,-1.308656915E1,1.854821005E1,6.538694512E0,2.362305895E1
7.155546458E0,-4.997312332E0,1.765786154E1,-2.141086884E1,2.819926433E1
7.165468458E0,5.390314221E0,8.062533875E0,-1.510622083E1,1.795154165E1
7.175389458E0,8.304678769E0,1.758677577E0,3.754143414E0,9.281930244E0
7.185311458E0,6.330007970E0,9.076106608E-1,1.640135454E1,1.760389697E1
7.195232458E0,2.992731271E0,1.183068312E0,2.339881457E1,2.361907311E1
7.205154458E0,-6.934429389E-1,4.523990750E-3,2.216930884E1,2.218015189E1
7.215075458E0,-2.197338619E0,-1.774602469E0,1.498940632E1,1.525319025E1
7.224997458E0,-1.511930339E0,-3.659601538E0,3.078276913E0,5.015416784E0
7.234918458E0,-2.055278760E-1,-6.385506232E0,-3.479362577E0,7.274812403E0
7.244840458E0,-1.590752560E-1,-5.912229089E0,-8.073097162E-1,5.969213241E0
7.254762458E0,-6.583915123E-1,-5.312248630E0,-4.691371684E-1,5.373411819E0
7.264683458E0,3.636506206E-1,-4.705981829E0,2.104892385E-1,4.724702368E0
7.274605458E0,2.303687485E0,-2.647793494E0,1.998703440E0,4.038886215E0
7.284526458E0,3.753247328E0,-4.789904577E-1,3.365549741E0,5.063913746E0
7.294448458E0,4.334909338E0,1.089803469E0,3.731419380E0,5.822594023E0
7.304369458E0,4.477294886E0,2.088072284E0,2.512989446E0,5.542682682E0
7.314291458E0,4.310592814E0,2.143355954E0,7.050420606E-1,4.865415652E0
7.324212458E0,3.914549496E0,1.134965608E0,-1.222490240E0,4.255153003E0
7.334134458E0,3.384751412E0,5.456750286E-1,-2.386973178E0,4.177552431E0
7.344055458E0,3.069122220E0,4.400778222E-1,-3.044862707E0,4.345614869E0
7.353977458E0,2.795083687E0,6.704984647E-1,-4.436970148E0,5.286659163E0
7.363898458E0,1.727565419E0,1.027760417E0,-6.261608995E0,6.576360769E0
7.373820458E0,1.149331925E0,2.421651844E0,-6.674023055E0,7.192214212E0
7.383742458E0,8.204903635E-1,4.539824426E0,-4.690539917E0,6.579086180E0
7.393663458E0,5.712495804E-2,6.339448299E0,-2.353347887E0,6.762404475E0
7.403585458E0,-1.031195657E0,7.418980549E0,-5.333198619E-1,7.509265406E0
7.413506458E0,-1.928572521E0,6.914140136E0,1.235064093E0,7.283550583E0
7.423428458E0,-2.375831601E0,5.538176272E0,2.858721274E0,6.669951989E0
7.433349458E0,-2.957675166E0,2.894397476E0,3.207919332E0,5.236041021E0
7.443271458E0,-2.741232878E0,-1.028511200E0,3.200163877E0,4.337423408E0
7.453192458E0,-2.134885093E0,-3.891758219E0,2.847830250E0,5.273865141E0
7.463114458E0,-2.382009184E0,-5.867057594E0,9.126076913E-1,6.397592154E0
7.473035458E0,-1.979633916E0,-6.987253720E0,-3.704957221E0,8.152752480E0
7.482957458E0,-8.245629492E-1,-5.417667496E0,-1.462217896E1,1.561534959E1
7.492878458E0,8.280619231E-1,-1.403189669E0,-2.549593016E1,2.554793695E1
7.502800458E0,3.901306137E0,9.254551935E-1,-2.095882527E1,2.133890845E1
7.512722458E0,6.105413493E0,-1.077638336E0,-6.993033693E0,9.345581765E0
7.522643458E0,6.787732104E0,-4.887991619E0,2.981377147E0,8.879998811E0
7.532565458E0,6.214040726E0,-6.882212584E0,6.876165978E0,1.154386464E1
7.542486458E0,3.703773159E0,-7.104178153E0,7.540051242E0,1.100180238E1
7.552408458E0,9.482134339E-1,-6.583591772E0,4.456361854E0,8.006369359E0
7.562329458E0,-2.150869042E-1,-6.570588149E0,-1.717904942E0,6.794857496E0
7.572251458E0,2.339386490E0,-8.149869642E0,-6.681119821E0,1.079492781E1
7.582175792E0,3.816997181E0,-1.091091493E1,-6.721994197E0,1.337171411E1
7.592097792E0,3.088397858E0,-1.195539020E1,-4.636839966E0,1.318976274E1
7.602018792E0,2.702152135E0,-9.919335916E0,-4.382595720E0,1.117595617E1
7.611940792E0,3.728784624E0,-7.921365716E0,-3.978997799E0,9.616875432E0
7.621861792E0,4.569576228E0,-7.790644194E0,-2.337518890E0,9.329477929E0
7.631783792E0,3.670705985E0,-8.082850025E0,-8.540282384E-1,8.918290823E0
7.641704792E0,1.497942045E0,-7.593867261E0,-3.283199894E-1,7.747157179E0
7.651626792E0,-1.165677231E0,-5.225415723E0,-3.794398570E-1,5.367284928E0
7.661548792E0,-2.971712285E0,-2.739271429E0,4.434632870E-1,4.065875250E0
7.671469792E0,-4.457865173E0,-1.537157566E0,2.388145545E0,5.285702832E0
7.681391792E0,-5.962736169E0,-1.974263248E0,4.242082450E0,7.579393215E0
7.691312792E0,-7.339482390E0,-4.268106653E0,4.470689871E0,9.595405363E0
7.701234792E0,-8.862035365E0,-6.562943500E0,4.638248852E0,1.196332941E1
7.711155792E0,-9.546101124E0,-8.119070018E0,4.853336341E0,1.343883247E1
7.721077792E0,-8.981897439E0,-7.811957295E0,4.330657243E0,1.266711295E1
7.730998792E0,-7.081057677E0,-5.869803447E0,3.670860937E0,9.903089939E0
7.740920792E0,-5.017882252E0,-4.130805843E0,3.103835677E0,7.202533938E0
7.750841792E0,-3.263981266E0,-3.189981244E0,3.049636081E0,5.489064972E0
7.760763792E0,-1.005892708E0,-3.114168000E0,3.798115060E0,5.013535727E0
7.770684792E0,1.752901697E0,-3.712322373E0,2.944784102E0,5.052301968E0
7.780606792E0,4.811794505E0,-4.186680082E0,-1.433508067E0,6.537323753E0
7.790527792E0,7.111471385E0,-3.885761315E0,-4.317394296E0,9.182159863E0
7.800449792E0,6.945550793E0,-2.121068122E0,-2.216606364E-1,7.265585953E0
7.810371792E0,7.445648530E0,-5.169564289E-1,5.959565808E0,9.550986892E0
7.820292792E0,7.084501103E0,1.064710727E0,7.795127254E0,1.058715135E1
7.830214792E0,6.523509877E0,2.361598601E0,8.793708311E0,1.120101044E1
7.840135792E0,5.521425753E0,4.618709797E0,8.881180903E0,1.143214751E1
7.850057792E0,4.958987342E0,6.589914367E0,8.373616857E0,1.175312665E1
7.859978792E0,4.732585783E0,7.788769577E0,9.225348601E0,1.296801282E1
7.869900792E0,4.120022408E0,8.732073396E0,9.747759898E0,1.372014991E1
7.879821792E0,3.035862088E0,9.706561586E0,9.849985600E0,1.415824893E1
7.889743792E0,2.207511020E0,1.031842593E1,9.480395962E0,1.418523620E1
7.899664792E0,1.758267687E0,1.008961853E1,9.043790801E0,1.366316433E1
7.909586792E0,1.074458913E0,9.583037986E0,8.845377232E0,1.308547964E1
7.919507792E0,7.631326863E-1,9.037733086E0,8.646056761E0,1.253065395E1
7.929429792E0,1.195950606E0,8.576009456E0,8.238591784E0,1.195209733E1
7.939350792E0,1.872482812E0,8.144763268E0,7.908704156E0,1.150612715E1
7.949272792E0,2.633598501E0,7.660044878E0,7.682033917E0,1.116359143E1
7.959193792E0,3.103565536E0,6.958022320E0,7.085217971E0,1.040415818E1
7.969115792E0,3.280892875E0,6.013974150E0,5.705388513E0,8.915357605E0
7.979037792E0,3.074864770E0,4.950305396E0,3.525303274E0,6.810879535E0
7.988958792E0,2.622234438E0,3.720585074E0,1.012094557E-1,4.552923247E0
7.998880792E0,1.612063030E0,2.388327978E0,-4.459020583E0,5.309022726E0
8.008801792E0,-9.896392027E-1,7.244343513E-1,-1.170044341E1,1.176454703E1
8.018723792E0,-5.325682608E0,-1.655130989E0,-1.865306583E1,1.946892957E1
8.028644792E0,-8.858293147E0,-6.314532144E0,-1.437365943E1,1.802622421E1
8.038566792E0,-1.122753114E1,-1.266607950E1,-7.787296078E0,1.863139838E1
8.048487792E0,-1.174669021E1,-1.855898530E1,-4.836970569E0,2.249037462E1
8.058409792E0,-6.661683676E0,-2.053041615E1,-6.243958590E0,2.246915743E1
8.068330792E0,1.397990910E0,-1.403299480E1,-6.648160236E0,1.559093827E1
8.078252792E0,4.705418158E0,-6.185202259E0,-5.394967436E0,9.460621578E0
8.088173792E0,5.644475144E0,-4.933874720E-1,-3.915786767E0,6.887446323E0
8.098095792E0,5.543244638E0,3.839777057E0,-3.317326584E0,7.515058525E0
8.108016792E0,1.856619024E0,6.743856937E0,-5.620067112E0,8.972836504E0
8.117938792E0,-3.603963235E0,5.791722652E0,-5.257899345E0,8.612671351E0
8.127859792E0,-6.449357243E0,2.027360644E0,-1.964076814E0,7.040028250E0
8.137781792E0,-3.136861044E0,-2.285590060E0,1.813610998E0,4.284040614E0
8.147703792E0,-1.826640934E0,-5.129474609E0,2.797551797E0,6.121635641E0
8.157624792E0,-5.079008460E0,-8.315341752E0,8.041354090E-1,9.776904885E0
8.167546792E0,-7.142345853E0,-1.337427438E1,-5.845673157E0,1.624980659E1
8.177467792E0,-4.029416586E0,-1.485972443E1,-8.514965109E0,1.759409671E1
8.187389792E0,-1.078760709E0,-7.225369298E0,1.077866144E1,1.302110704E1
8.197310792E0,-4.811031736E0,3.245527453E0,3.367388573E1,3.417030956E1
8.207232792E0,-9.889276550E0,1.016604632E1,2.885880421E1,3.215551071E1
8.217153792E0,-1.143870684E1,1.399989020E1,5.402713242E0,1.886876388E1
8.227075792E0,-5.343837043E0,1.367703502E1,-2.106422484E1,2.567721655E1
8.236996792E0,2.605824812E0,6.327275566E0,-1.203220390E1,1.384191713E1
8.246918792E0,5.152191626E0,1.398393198E0,6.559115328E0,8.457102103E0
8.256839792E0,4.938146111E0,7.063109064E-1,1.773030620E1,1.841868399E1
8.266761792E0,2.178248775E0,6.246586329E-1,2.228929838E1,2.240419132E1
8.276682792E0,-2.464686182E-1,-1.099732041E0,2.077751949E1,2.080806270E1
8.286604792E0,-5.989129038E-1,-2.435633706E0,1.265110595E1,1.289734430E1
8.296525792E0,6.698565866E-1,-4.656793882E0,-1.575686916E0,4.961574988E0
8.306447792E0,2.058466955E-1,-4.677502381E0,-2.023150795E0,5.100445130E0
8.316368792E0,-4.234843013E-1,-3.325223833E0,1.989003494E-2,3.352140825E0
8.326290792E0,-5.949489301E-1,-3.207514120E0,1.414909244E-2,3.262255547E0
8.336211792E0,1.134301364E-2,-3.021215397E0,1.070884656E0,3.205411844E0
8.346133792E0,1.039261014E0,-2.403375202E0,1.335740283E0,2.939468986E0
8.356054792E0,1.572898233E0,-1.345144359E0,1.816352173E0,2.753644388E0
8.365976792E0,2.379667959E0,1.890650403E-1,2.253185960E0,3.282592292E0
8.375898792E0,3.812272924E0,1.648987319E0,1.129600203E0,4.304483783E0
8.385819792E0,3.891460303E0,2.656040992E0,-7.158675957E-1,4.765551748E0
8.395741792E0,3.398773620E0,2.867400881E0,-2.189805651E0,4.956702404E0
8.405662792E0,3.120337397E0,2.651864326E0,-2.827071465E0,4.976065006E0
8.415584792E0,3.023800744E0,2.429228082E0,-2.360437782E0,4.540505097E0
8.425505792E0,2.322339518E0,1.927414187E0,-2.414226465E0,3.864799569E0
8.435427792E0,1.928037208E0,1.488014642E0,-3.965864661E0,4.653987275E0
8.445348792E0,2.053289099E0,1.437223388E0,-4.924861237E0,5.525926655E0
8.455270792E0,2.100781208E0,1.570849807E0,-3.841396151E0,4.651577709E0
8.465191792E0,1.545387668E0,2.207694622E0,-1.340090757E0,3.009648124E0
8.475113792E0,3.663839015E-1,3.153601622E0,1.414635302E0,3.475720557E0
8.485034792E0,-1.251681149E0,3.573498364E0,2.252243243E0,4.405586894E0
8.494956792E0,-3.244700072E0,3.659303330E0,1.311784240E0,5.063532099E0
8.504877792E0,-4.681626129E0,3.782445107E0,-6.047126108E-1,6.048982687E0
8.514799792E0,-3.999960652E0,3.522238748E0,-2.712161106E0,5.980106093E0
8.524720792E0,-2.471446148E0,1.945306082E0,-5.473180962E0,6.312524983E0
8.534642792E0,-1.878374174E0,-2.291477036E-1,-8.019540467E0,8.239771084E0
8.544563792E0,-5.023353200E-1,-2.307841639E0,-9.136824095E0,9.437162092E0
8.554485792E0,1.646023073E0,-3.702204351E0,-8.428748499E0,9.351978950E0
8.564406792E0,3.382105840E0,-3.907017113E0,-6.670155707E0,8.437677393E0
8.574324917E0,5.008105123E0,-4.087016045E0,-4.068958382E0,7.638143714E0
8.584245917E0,6.234611816E0,-4.969476078E0,-1.319949584E0,8.081357800E0
8.594167917E0,6.600986069E0,-5.960951598E0,1.198828313E-1,8.894961098E0
8.604088917E0,5.703960038E0,-6.333791703E0,2.905276805E-1,8.528568684E0
8.614010917E0,3.702963028E0,-6.245986404E0,-8.813920382E-1,7.314446888E0
8.623932917E0,1.120786695E0,-6.291383017E0,-3.461202003E0,7.267570598E0
8.633853917E0,-5.768517977E-1,-6.687807282E0,-6.277966581E0,9.190886172E0
8.643775917E0,-3.282901686E-1,-7.395333824E0,-7.533821619E0,1.056206443E1
8.653696917E0,1.605662521E0,-8.442350877E0,-5.970539278E0,1.046416646E1
8.663618917E0,2.760781874E0,-9.456182642E0,-3.326647046E0,1.039749428E1
8.673539917E0,1.444145614E0,-9.269148924E0,-2.514022649E0,9.712002276E0
8.683461917E0,5.113156199E-1,-8.126874297E0,-3.988243124E0,9.067172256E0
8.693382917E0,7.828949596E-1,-6.191592681E0,-5.269667451E0,8.168117255E0
8.703304917E0,1.457981296E0,-5.307556824E0,-3.316742739E0,6.426247062E0
8.713225917E0,1.860770839E0,-5.850286610E0,7.540540069E-1,6.185217780E0
8.723147917E0,1.284495285E0,-6.113586731E0,2.875230303E0,6.876977544E0
8.733068917E0,6.899962977E-1,-5.820927740E0,3.304039371E0,6.728742142E0
8.742990917E0,1.385215621E-1,-4.822446086E0,2.764013922E0,5.560121171E0
8.752911917E0,-1.237862278E0,-3.643845631E0,1.889288002E0,4.287111283E0
8.762833917E0,-3.275051799E0,-3.105647437E0,1.657580388E0,4.808178765E0
8.772754917E0,-5.183760744E0,-3.696810880E0,1.649035267E0,6.577013261E0
8.782676917E0,-7.395018659E0,-5.845361500E0,1.900749714E0,9.615997167E0
8.792597917E0,-9.453036255E0,-7.961080590E0,2.451730506E0,1.259959051E1
8.802519917E0,-1.028527806E1,-8.244157164E0,2.889778175E0,1.349458743E1
8.812440917E0,-9.490815700E0,-6.623185608E0,3.049388452E0,1.196833072E1
8.822362917E0,-7.582547636E0,-4.632575299E0,2.533690051E0,9.239879211E0
8.832283917E0,-5.590614687E0,-3.395561160E0,2.693830377E0,7.074003836E0
8.842205917E0,-2.572966091E0,-3.026597174E0,5.755048916E0,6.992927354E0
8.852126917E0,1.202134036E0,-3.837399579E0,8.576379000E0,9.472330153E0
8.862048917E0,3.614505472E0,-4.516385277E0,6.523781773E0,8.719066143E0
8.871969917E0,5.807718880E0,-5.117179084E0,3.252176907E0,8.395938006E0
8.881891917E0,6.624704130E0,-4.726101514E0,2.028394724E0,8.386723167E0
8.891812917E0,4.967993224E0,-1.302159138E0,4.114138063E0,6.580479245E0
8.901734917E0,4.696840585E0,1.873740256E0,8.111061087E0,9.558270030E0
8.911655917E0,5.718267006E0,3.769662509E0,9.501498563E0,1.171270284E1
8.921577917E0,5.824329066E0,6.175811630E0,1.008771000E1,1.318428426E1
8.931498917E0,6.061696200E0,8.308616869E0,1.010568434E1,1.441881171E1
8.941420917E0,5.907068921E0,1.005088190E1,8.726187004E0,1.456228106E1
8.951341917E0,4.928409328E0,1.155541726E1,8.062657835E0,1.492726827E1
8.961263917E0,3.866992337E0,1.268238037E1,8.684273577E0,1.584970060E1
8.971185917E0,2.905472102E0,1.286740498E1,9.445606783E0,1.622440651E1
8.981106917E0,1.941154705E0,1.176311270E1,9.911673725E0,1.550419872E1
8.991028917E0,8.543394564E-1,1.055015225E1,1.019780254E1,1.469798575E1
9.000949917E0,4.275232655E-1,9.945124476E0,1.011319918E1,1.419031623E1
9.010871917E0,6.693907097E-1,9.528216246E0,9.596514063E0,1.353986968E1
9.020792917E0,1.225292226E0,8.841971814E0,8.478488424E0,1.231123765E1
9.030714917E0,1.770755878E0,7.980124387E0,7.082544624E0,1.081574778E1
9.040635917E0,2.347758826E0,6.579943110E0,5.200655689E0,8.709445587E0
9.050557917E0,3.145380437E0,4.911358847E0,2.124011611E0,6.206954901E0
9.060478917E0,3.623050008E0,3.506860571E0,-1.450978378E0,5.246894384E0
9.070400917E0,3.051480585E0,2.100920956E0,-5.877210115E0,6.947445671E0
9.080321917E0,-1.464917555E-1,4.196874118E-1,-1.339512438E1,1.340249807E1
9.090243917E0,-5.484130458E0,-2.511845146E0,-2.054740582E1,2.141450301E1
9.100164917E0,-7.834733369E0,-8.649994860E0,-1.646217610E1,2.017941278E1
9.110086917E0,-8.009377422E0,-1.555996476E1,-7.255711670E0,1.894486690E1
9.120007917E0,-8.573397505E0,-2.048475642E1,-1.952032135E0,2.229212461E1
9.129929917E0,-5.327385902E0,-2.258605861E1,-4.027938702E0,2.355282094E1
9.139850917E0,4.437411028E-1,-1.556824910E1,-5.605494096E0,1.655260856E1
9.149772917E0,3.606588635E0,-6.182209069E0,-4.035424892E0,8.216559171E0
9.159693917E0,4.969177870E0,-9.414385575E-1,-2.222031995E0,5.524170657E0
9.169615917E0,5.154728149E0,2.392488272E0,-1.906326789E0,5.994105792E0
9.179536917E0,7.909704030E-1,5.030375998E0,-3.967079127E0,6.455078130E0
9.189458917E0,-5.935054865E0,5.183438562E0,-5.273438321E0,9.481669858E0
9.199379917E0,-8.249541864E0,3.245102361E0,-5.161181136E0,1.025784680E1
9.209301917E0,-2.959365304E0,-7.458632272E-1,-4.425541765E0,5.375832482E0
9.219222917E0,3.244771993E-1,-5.400952646E0,-3.474972780E0,6.430475158E0
9.229144917E0,4.510863751E-1,-1.103350415E1,-1.206848938E0,1.110847321E1
9.239065917E0,4.361666197E-1,-1.540689635E1,-4.388686180E-1,1.541931588E1
9.248987917E0,9.272023416E-1,-1.236274116E1,-4.686474348E0,1.325368307E1
9.258908917E0,7.268982218E-1,-3.180425139E0,9.227881030E0,9.787608155E0
9.268830917E0,-7.940550431E0,4.282541090E0,3.181068450E1,3.306527102E1
9.278751917E0,-1.835872284E1,9.870035702E0,2.526286482E1,3.275168161E1
9.288673917E0,-1.817111493E1,1.348437862E1,2.421911461E0,2.275705472E1
9.298594917E0,-5.343998426E0,1.160851817E1,-1.733344866E1,2.153519110E1
9.308516917E0,6.490785935E0,4.177997552E0,-1.073323559E1,1.322075307E1
9.318437917E0,9.347193466E0,5.461381280E-1,5.266859618E0,1.074281633E1
9.328359917E0,5.950986773E0,3.731862599E-1,1.696724924E1,1.798446714E1
9.338280917E0,7.012785003E-1,-1.653469795E-1,2.184093155E1,2.185281268E1
9.348202917E0,-2.499985238E0,-6.057235944E-1,1.876223451E1,1.893774726E1
9.358123917E0,-3.067653399E0,-1.526011603E0,9.121720737E0,9.743972393E0
9.368045917E0,-6.174247500E-1,-4.194550434E0,-9.406591237E-1,4.342845410E0
9.377966917E0,4.493734333E-1,-4.414158406E0,-7.510099465E-1,4.500082983E0
9.387888917E0,-6.371963789E-1,-1.830278487E0,1.664676715E0,2.554816457E0
9.397809917E0,-1.181519677E0,-2.730076683E-1,1.970374850E0,2.313633287E0
9.407731917E0,-1.054399309E0,9.710137743E-1,2.043653472E0,2.496226185E0
9.417652917E0,-6.668674900E-1,1.607884317E0,2.352798103E0,2.926715418E0
9.427574917E0,5.879654543E-1,1.468131185E0,3.182076977E0,3.553410537E0
9.437495917E0,2.337488338E0,6.603652400E-1,4.558550134E0,5.165298956E0
9.447417917E0,3.531820580E0,-5.061870271E-1,6.746784053E0,7.632108292E0
9.457338917E0,3.957102608E0,-1.135230487E0,6.806098208E0,7.954268171E0
9.467260917E0,3.769712795E0,-1.471593322E0,3.730706019E0,5.504042956E0
9.477181917E0,3.322564520E0,-1.202224376E0,-5.901653230E-1,3.582327951E0
9.487103917E0,2.581165934E0,-6.131858110E-1,-5.105570022E0,5.753717030E0
9.497024917E0,2.288851929E0,-9.411327481E-2,-8.239044943E0,8.551582429E0
9.506946917E0,2.251525789E0,3.982626289E-1,-9.490080121E0,9.761639319E0
9.516867917E0,1.851506949E0,9.760002798E-1,-9.466469064E0,9.695085924E0
9.526789917E0,9.363937260E-1,1.855976999E0,-8.285295834E0,8.542108106E0
9.536710917E0,2.877540538E-1,3.067064000E0,-6.286522812E0,7.000718037E0
9.546632917E0,-3.118831739E-1,4.504933505E0,-3.585525502E0,5.766081002E0
9.556553917E0,-7.322117329E-1,5.551973362E0,-2.892851472E-1,5.607515326E0
9.566475917E0,-6.436965823E-1,6.177119068E0,2.634411557E0,6.746204082E0
9.576396667E0,-2.266673148E-1,6.407412241E0,3.943152906E0,7.526935933E0
9.586318667E0,-3.206807484E-1,5.904662792E0,4.359524946E0,7.346654789E0
9.596239667E0,-7.456303619E-1,4.551546924E0,3.865457443E0,6.017832274E0
9.606161667E0,-1.406926625E0,2.244937878E0,3.064145070E0,4.050700385E0
9.616082667E0,-1.737763548E0,-7.994032574E-1,2.313625997E0,3.001954858E0
9.626004667E0,-1.337882118E0,-4.054231877E0,5.136401805E-1,4.300064058E0
9.635925667E0,-4.017352903E-1,-6.109014208E0,-2.251899573E0,6.523227539E0
9.645847667E0,1.287871467E0,-6.202380209E0,-7.317419676E0,9.678469088E0
9.655768667E0,3.998146846E0,-4.993933811E0,-1.504569279E1,1.634923315E1
9.665690667E0,6.646237671E0,-3.839826173E0,-1.579788797E1,1.756388352E1
9.675611667E0,7.216890836E0,-4.291394359E0,-7.258189720E0,1.109868897E1
9.685533667E0,5.981786397E0,-5.748955532E0,1.455407059E-1,8.297797317E0
9.695454667E0,4.234416458E0,-5.982668742E0,3.212639204E0,8.002728202E0
9.705376667E0,1.311550059E0,-5.563921562E0,3.030909204E0,6.470223900E0
9.715297667E0,-1.577678478E0,-5.121384986E0,4.309687373E-1,5.376187088E0
9.725219667E0,-2.667814361E0,-4.915638424E0,-3.371831989E0,6.530695640E0
9.735140667E0,-2.231035830E0,-5.863531723E0,-5.667694438E0,8.454660571E0
9.745062667E0,1.964760938E-1,-8.072630847E0,-5.160392346E0,9.583090358E0
9.754983667E0,2.566719803E0,-1.070993093E1,-3.314536293E0,1.150116611E1
9.764905667E0,3.276587571E0,-1.024276179E1,-2.582261117E0,1.105975893E1
9.774826667E0,3.496036205E0,-7.335515639E0,-3.937726690E0,9.029825597E0
9.784748667E0,4.207852265E0,-6.184407037E0,-4.983257965E0,8.988090511E0
9.794669667E0,4.659513714E0,-6.544700772E0,-3.789594498E0,8.882860052E0
9.804591667E0,4.117874726E0,-6.424291399E0,-1.787548496E0,7.837330021E0
9.814512667E0,2.578685253E0,-6.132338167E0,-1.355957323E0,6.789242173E0
9.824434667E0,7.862648562E-2,-4.877504053E0,-2.263138067E0,5.377547938E0
9.834355667E0,-2.437222980E0,-2.248108238E0,-1.515748571E0,3.645756469E0
9.844277667E0,-3.601563830E0,-3.014210433E-1,4.400777491E-1,3.640849501E0
9.854198667E0,-4.568321416E0,-6.814520538E-2,1.856627795E0,4.931660075E0
9.864120667E0,-5.945242469E0,-1.880877952E0,2.905154598E0,6.879210211E0
9.874041667E0,-7.307475901E0,-5.265431728E0,3.964195865E0,9.840671938E0
9.883963667E0,-8.830642834E0,-7.724608079E0,4.423019861E0,1.253845794E1
9.893884667E0,-8.562413510E0,-8.459385570E0,4.679065926E0,1.291393771E1
9.903806667E0,-6.742795082E0,-7.208937453E0,4.141112731E0,1.070433928E1
9.913727667E0,-4.656785988E0,-5.555992738E0,2.356512108E0,7.622851196E0
9.923649667E0,-3.146193200E0,-4.782615438E0,9.099438460E-1,5.796545512E0
9.933570667E0,-2.081999659E0,-4.273922879E0,3.975954616E-1,4.770662585E0
9.943492667E0,-6.161860174E-1,-3.339678735E0,6.018050829E-1,3.448957613E0
9.953413667E0,1.025609227E0,-2.803656875E0,2.312466494E0,3.776223966E0
9.963335667E0,2.373548555E0,-2.212517990E0,4.070455269E0,5.205533085E0
9.973256667E0,4.163558437E0,-1.953522005E0,6.433312483E0,7.908158862E0
9.983178667E0,6.358911341E0,-2.469658070E0,7.039350657E0,9.802419197E0
9.993099667E0,6.981816394E0,-1.865548307E0,4.892549231E0,8.727145503E0
1.000302167E1,6.231957180E0,-1.043131578E-1,5.208163514E0,8.122385038E0
1.001294267E1,5.733752772E0,1.927569723E0,7.892687463E0,9.944142058E0
1.002286467E1,5.231948817E0,4.316121064E0,8.581738558E0,1.093839230E1
1.003278567E1,4.799183231E0,6.155540503E0,8.437113526E0,1.149381239E1
1.004270767E1,4.485889124E0,7.187985125E0,8.335627497E0,1.188583262E1
1.005262867E1,3.498736157E0,8.027026657E0,8.003077632E0,1.186269629E1
1.006255067E1,2.634708595E0,8.871374538E0,8.122928596E0,1.231360810E1
1.007247167E1,2.063976786E0,9.294255699E0,8.510912989E0,1.277023215E1
1.008239367E1,1.796412583E0,9.389933689E0,8.586767163E0,1.285031218E1
1.009231467E1,1.894484130E0,9.304502360E0,8.729277257E0,1.289818265E1
1.010223667E1,2.133249042E0,9.056050074E0,8.804374217E0,1.280936375E1
1.011215767E1,2.480372508E0,8.822087772E0,8.791949469E0,1.269960062E1
1.012207967E1,2.903201921E0,8.599926907E0,8.510646356E0,1.244260526E1
1.013200067E1,3.366744035E0,8.213962727E0,7.971938869E0,1.193130162E1
1.014192267E1,3.784545719E0,7.480324858E0,7.170527093E0,1.103152324E1
1.015184367E1,4.193148564E0,6.301661253E0,5.871899673E0,9.579803506E0
1.016176567E1,4.521696595E0,4.732851539E0,3.282839998E0,7.322749637E0
1.017168667E1,4.178597476E0,3.201447049E0,-8.096262369E-1,5.325921020E0
1.018160767E1,2.684639432E0,1.908901902E0,-5.873645652E0,6.734308323E0
1.019152967E1,-7.171563220E-1,8.014491981E-1,-1.482086501E1,1.485983424E1
1.020145167E1,-5.934621001E0,-1.051201905E0,-2.387007209E1,2.461920172E1
1.021137267E1,-9.335066925E0,-6.242041873E0,-1.748357124E1,2.077936054E1
1.022129467E1,-1.134983267E1,-1.422185753E1,-6.928382784E0,1.947003906E1
1.023121567E1,-1.182618778E1,-2.129513373E1,-2.924917018E0,2.453358061E1
1.024113667E1,-8.053761882E0,-2.298432416E1,-4.015686446E0,2.468335422E1
1.025105867E1,-2.195125155E0,-1.587542906E1,-3.363192143E0,1.637555751E1
1.026097967E1,5.453271192E-1,-7.633162889E0,-1.428101732E0,7.784730690E0
1.027090167E1,3.493278366E0,-2.074374012E0,-3.553528368E-2,4.062915707E0
1.028082267E1,4.377959463E0,2.277258362E0,-1.471966959E0,5.149671974E0
1.029074467E1,-2.631305516E-1,5.230827321E0,-4.999618474E0,7.240647557E0
1.030066567E1,-5.616619009E0,5.717071250E0,-4.907216095E0,9.397450855E0
1.031058767E1,-5.037030129E0,3.001557643E0,-3.695840242E0,6.931107841E0
1.032050867E1,-1.230563491E0,-2.064222077E0,-3.556833799E0,4.292594316E0
1.033043067E1,-1.684417938E0,-6.889990550E0,-3.169738183E0,7.768942896E0
1.034035167E1,-3.759375210E0,-1.144969609E1,-4.075603450E0,1.272159527E1
1.035027367E1,-4.100026393E0,-1.348678300E1,-4.562118689E0,1.481608784E1
1.036019467E1,-9.214861035E-1,-8.417230654E0,-4.926004953E0,9.796143798E0
1.037011667E1,3.521051471E0,1.685999025E0,9.501395068E0,1.027214215E1
1.038003767E1,1.677960858E0,1.058850063E1,3.428460402E1,3.592166437E1
1.038995967E1,-7.833356935E0,1.442249888E1,3.152313480E1,3.553980842E1
1.039988067E1,-1.381117717E1,1.338944791E1,4.781000729E0,1.982129910E1
1.040980267E1,-8.087279876E0,8.532600896E0,-2.181388701E1,2.478013398E1
1.041972367E1,1.834340547E0,5.789076787E-1,-1.053203056E1,1.070624150E1
1.042964567E1,5.056038258E0,-2.981481228E0,6.762316597E0,8.954422311E0
1.043956667E1,4.718182337E0,-2.762972533E0,1.370527941E1,1.475567503E1
1.044948867E1,1.093324954E0,-2.236538352E0,1.691679712E1,1.709899085E1
1.045940967E1,-9.021470225E-1,-2.693125203E0,1.570887580E1,1.596357014E1
1.046933167E1,-4.060853264E-1,-3.044490239E0,9.578223388E0,1.005863755E1
1.047925267E1,1.287994551E0,-2.784694355E0,2.222554736E0,3.788562018E0
1.048917467E1,1.115928682E0,-1.374756998E0,1.025204599E0,2.046044501E0
1.049909567E1,1.969194590E-1,3.207343966E-1,1.979079161E0,2.014547630E0
1.050901767E1,-7.550568044E-2,6.981318212E-1,1.993961056E0,2.113993813E0
1.051893867E1,-2.519217315E-1,4.366811746E-1,2.233715755E0,2.289899797E0
1.052886067E1,3.442097980E-1,2.529388547E-1,2.513003479E0,2.549047849E0
1.053878167E1,1.344715174E0,-1.632297027E-1,3.371682301E0,3.633613129E0
1.054870367E1,2.334586803E0,-4.805540031E-1,4.822877026E0,5.379718440E0
1.055862467E1,2.536367784E0,-5.762524581E-1,4.951901686E0,5.593438901E0
1.056854667E1,2.212009575E0,-1.079852092E-1,1.477001996E0,2.661988366E0
1.057846808E1,2.465718216E0,1.055697244E-1,-1.491828196E0,2.883827778E0
1.058839008E1,2.539480841E0,5.910038137E-1,-3.266774481E0,4.179720560E0
1.059831108E1,2.261527598E0,1.133578649E0,-4.758715528E0,5.389330302E0
1.060823208E1,1.590400850E0,1.148208967E0,-5.968595663E0,6.282666065E0
1.061815408E1,1.123063601E0,1.567866558E0,-6.836862164E0,7.103672406E0
1.062807508E1,-4.802552104E-2,2.625629624E0,-7.098353741E0,7.568544325E0
1.063799708E1,-1.302460855E0,3.566299857E0,-6.958118799E0,7.926557649E0
1.064791808E1,-4.129718846E-1,4.129200783E0,-6.336248118E0,7.574225049E0
1.065784008E1,8.043153571E-1,5.002645578E0,-4.737028205E0,6.936340692E0
1.066776108E1,2.429021821E0,5.650352181E0,-1.329724813E0,6.292439499E0
1.067768308E1,3.840733661E0,5.495299809E0,2.263212619E0,7.076134991E0
1.068760408E1,4.333987524E0,4.612245115E0,6.038383352E0,8.747475428E0
1.069752608E1,3.295236095E0,3.188700703E0,7.332449943E0,8.648191445E0
1.070744708E1,2.010551654E0,1.573410888E0,6.267021178E0,6.767089051E0
1.071736908E1,2.199930105E-1,-1.202071763E0,4.707997949E0,4.864012555E0
1.072729008E1,-1.804546645E0,-4.916636544E0,3.409162661E0,6.249167428E0
1.073721208E1,-2.832713151E0,-7.360140018E0,6.890578195E-1,7.916484419E0
1.074713308E1,-2.383419825E0,-7.112344959E0,-6.661121174E0,1.003178330E1
1.075705508E1,-1.257920420E0,-3.042973471E0,-2.065857543E1,2.091934010E1
1.076697608E1,6.834994563E-1,1.215323893E0,-2.624606478E1,2.628307630E1
1.077689808E1,4.034846895E0,1.407490881E0,-1.444186018E1,1.506082155E1
1.078681908E1,5.061631120E0,-2.293058124E0,-1.046289074E0,5.654462484E0
1.079674108E1,5.796517369E0,-5.836997058E0,6.769183567E0,1.065326215E1
1.080666208E1,6.159537660E0,-6.403510394E0,1.017342199E1,1.350715975E1
1.081658408E1,3.984209715E0,-5.216714482E0,8.838589200E0,1.100948210E1
1.082650508E1,1.235806105E0,-5.387401723E0,4.638316388E0,7.215628384E0
1.083642708E1,-4.765878367E-1,-6.360899395E0,-1.111949798E0,6.474921577E0
1.084634808E1,-1.534075499E0,-7.803899832E0,-6.761149492E0,1.043874431E1
1.085626908E1,-2.596061423E-1,-9.966043475E0,-8.685409691E0,1.322216924E1
1.086619108E1,2.610444697E0,-1.033411868E1,-5.617915921E0,1.204862688E1
1.087611208E1,4.522861653E0,-1.003871969E1,-3.042846587E0,1.142326949E1
1.088603408E1,4.753440755E0,-1.131950550E1,-1.684825197E0,1.239213620E1
1.089595508E1,3.610349271E0,-1.277857058E1,-1.059915572E0,1.332103257E1
1.090587708E1,1.127870304E0,-1.078576931E1,-1.681486729E0,1.097416552E1
1.091579808E1,-9.852039434E-1,-6.785862749E0,-3.004284784E0,7.486273247E0
1.092572008E1,-2.443172960E0,-3.350999529E0,-3.249358549E0,5.268455461E0
1.093564108E1,-3.369568532E0,-1.594456186E0,-1.672799520E0,4.085895356E0
1.094556308E1,-4.193319303E0,-1.550626627E0,3.893901370E-1,4.487760510E0
1.095548408E1,-5.776812837E0,-2.423338181E0,2.366220825E0,6.696501735E0
1.096540608E1,-7.362450253E0,-4.025267109E0,3.255743709E0,9.000461995E0
1.097532708E1,-7.718873130E0,-5.223385570E0,4.388342364E0,1.030156823E1
1.098524908E1,-7.790839491E0,-4.810946367E0,5.201400039E0,1.053076195E1
1.099517008E1,-7.440017077E0,-3.837673813E0,5.376969706E0,9.949542583E0
1.100509208E1,-6.524512675E0,-3.051824986E0,4.451321554E0,8.467417845E0
1.101501308E1,-5.373353788E0,-2.830059977E0,3.370227513E0,6.945545615E0
1.102493508E1,-4.427578350E0,-2.704896233E0,1.230152432E0,5.332278001E0
1.103485608E1,-2.894054537E0,-1.998046213E0,-2.180119738E-1,3.523530836E0
1.104477808E1,-1.103250310E0,-1.951108859E0,-1.603416460E0,2.755890305E0
1.105469908E1,1.531489275E0,-2.695477538E0,-2.420430361E0,3.933133826E0
1.106462008E1,5.247550943E0,-3.260133798E0,-1.456704264E0,6.347223849E0
1.107454208E1,6.828812302E0,-2.478914797E0,4.742121130E-1,7.280286612E0
1.108446308E1,6.548174018E0,-9.350118828E-1,4.055722917E0,7.758976644E0
1.109438508E1,7.598133974E0,-6.541169053E-1,9.458933172E0,1.215034673E1
1.110430608E1,7.245526990E0,2.272771794E-1,9.674883710E0,1.208936272E1
1.111422808E1,6.154262887E0,2.831552771E0,7.356242264E0,1.000034714E1
1.112414908E1,5.617408968E0,5.164615790E0,7.531330705E0,1.072144962E1
1.113407108E1,5.355750745E0,6.633569679E0,8.768713219E0,1.223023484E1
1.114399208E1,5.010627612E0,7.048222638E0,9.456684918E0,1.281455115E1
1.115391408E1,3.890273319E0,7.495700696E0,9.029562771E0,1.236336359E1
1.116383508E1,2.801103103E0,8.242846218E0,8.820094457E0,1.239293180E1
1.117375708E1,1.977388878E0,9.004084114E0,8.213111957E0,1.234661109E1
1.118367808E1,1.549889001E0,9.071134136E0,7.452929483E0,1.184203480E1
1.119360008E1,8.939612129E-1,9.064896911E0,7.033594074E0,1.150838687E1
1.120352108E1,7.256909180E-1,9.100099488E0,6.947413716E0,1.147192204E1
1.121344308E1,1.564266427E0,8.788028326E0,6.852590590E0,1.125319373E1
1.122336408E1,2.704629015E0,8.166045379E0,6.549753935E0,1.081196522E1
1.123328608E1,3.621877057E0,7.582783864E0,6.096005323E0,1.038161285E1
1.124320708E1,4.299829552E0,6.608762282E0,5.452701674E0,9.586252063E0
1.125312808E1,4.581175642E0,5.422232417E0,4.203571811E0,8.249714578E0
1.126305008E1,4.629184206E0,4.436680711E0,2.148986823E0,6.762516286E0
1.127297108E1,3.985412195E0,3.707203721E0,-1.668376687E0,5.693008920E0
1.128289308E1,2.313925374E0,2.587912744E0,-8.194457585E0,8.899476283E0
1.129281408E1,-1.005032436E0,3.971604288E-1,-1.621152936E1,1.624750783E1
1.130273608E1,-6.650014973E0,-3.044787278E0,-2.079796837E1,2.204651712E1
1.131265708E1,-1.303050488E1,-8.138188659E0,-1.525826130E1,2.165268366E1
1.132257908E1,-1.510282710E1,-1.624874805E1,-5.404017171E0,2.283244624E1
1.133250008E1,-1.142107865E1,-2.230717449E1,-4.192792761E-1,2.506445424E1
1.134242208E1,-3.898888314E0,-1.994110569E1,-2.924062740E0,2.052800939E1
1.135234308E1,7.407255712E-1,-1.188168722E1,-4.326409240E0,1.266653001E1
1.136226508E1,1.978771744E0,-4.610672799E0,-4.133277169E0,6.500601621E0
1.137218608E1,3.695553436E0,1.970885897E0,-3.230652722E0,5.289482340E0
1.138210808E1,4.162235212E0,7.817930226E0,-2.535770198E0,9.212728449E0
1.139202908E1,2.323750451E0,1.131789050E1,-5.194481029E0,1.266795542E1
1.140195108E1,-6.993468726E-1,9.410322930E0,-4.019077832E0,1.025652233E1
1.141187208E1,-1.035417931E0,2.923745236E0,2.778395734E0,4.164115674E0
1.142179308E1,1.517851229E0,-2.738912410E0,7.745846921E0,8.354858351E0
1.143171508E1,1.287504846E0,-6.111820287E0,4.147391471E0,7.497524389E0
1.144163608E1,-3.960433182E0,-8.516996432E0,-3.338321012E0,9.968382336E0
1.145155808E1,-1.048084287E1,-1.357355334E1,-1.119891135E1,2.048182201E1
1.146147908E1,-9.985559142E0,-1.935066555E1,-1.052195464E1,2.418411003E1
1.147140108E1,-5.288293172E0,-1.506097507E1,5.688168463E0,1.694562702E1
1.148132208E1,-6.559445111E0,-2.562819418E0,2.898683017E1,2.983002995E1
1.149124408E1,-1.017583689E1,8.118044416E0,3.147047010E1,3.405643537E1
1.150116508E1,-9.917761846E0,1.415743524E1,1.814065210E1,2.505749851E1
1.151108708E1,-7.878986267E0,1.736412432E1,-6.948900663E0,2.029478895E1
1.152100808E1,-1.474569847E0,1.350000472E1,-2.340970443E1,2.706360554E1
1.153093008E1,5.035936700E0,5.148254696E0,-7.953398518E0,1.072947962E1
1.154085108E1,6.361951894E0,1.420706173E0,9.016280821E0,1.112592278E1
1.155077308E1,3.364348723E0,4.648735249E-1,1.920390863E1,1.950192442E1
1.156069408E1,-2.645603420E-1,-7.360977924E-1,2.143693806E1,2.145120383E1
1.157061508E1,-1.598502460E0,-1.143252282E0,1.768778876E1,1.779663190E1
1.158053992E1,-1.406327139E0,2.113078487E-1,1.212510447E1,1.220821712E1
1.159046092E1,-1.471198781E0,1.827237350E-1,7.304068143E0,7.453001091E0
1.160038292E1,-8.669535086E-1,-1.904332888E0,-5.897140642E-1,2.173903129E0
1.161030392E1,-1.722244745E-1,-5.102352884E0,-4.110330648E0,6.554272214E0
1.162022592E1,1.262173831E0,-6.880796388E0,-1.337110724E0,7.122240294E0
1.163014692E1,3.472849072E0,-7.147203135E0,8.431510285E-1,7.990875858E0
1.164006892E1,5.233563818E0,-5.423305382E0,2.189593982E0,7.848359912E0
1.164998992E1,4.848353637E0,-2.431096852E0,1.559124970E0,5.643370940E0
1.165991192E1,3.768736310E0,1.455143934E-1,-2.886688507E-1,3.782575514E0
1.166983292E1,3.318180862E0,1.483143327E0,-1.861530100E0,4.083544132E0
1.167975492E1,2.656146534E0,1.902471135E0,-2.315497983E0,4.004502683E0
1.168967592E1,1.922834063E0,2.227504989E0,-2.721828015E0,4.008418274E0
1.169959692E1,1.400678436E0,2.568467243E0,-3.046786441E0,4.223959242E0
1.170951892E1,1.001309660E0,2.425013409E0,-3.762942304E0,4.587269978E0
1.171943992E1,3.143397354E-1,3.089938307E0,-5.392830278E0,6.223274590E0
1.172936192E1,-1.626363565E-1,4.142295038E0,-6.162482318E0,7.427061807E0
1.173928292E1,-3.351115304E-1,4.643064619E0,-5.166808496E0,6.954585454E0
1.174920492E1,-1.487828408E-1,4.923485388E0,-2.803321245E0,5.667579262E0
1.175912592E1,-6.415297504E-1,5.620171777E0,3.652555351E-1,5.668448009E0
1.176904792E1,-1.251557480E0,5.474356837E0,2.812564523E0,6.280565110E0
1.177896892E1,-1.202855729E0,4.666330106E0,4.096260493E0,6.324622407E0
1.178889092E1,-1.089454390E0,3.611229862E0,3.790759848E0,5.347686622E0
1.179881192E1,-7.846343601E-1,2.143588673E0,3.253359799E0,3.974289051E0
1.180873392E1,-3.809323588E-1,-6.310549021E-2,2.468507338E0,2.498523612E0
1.181865492E1,-8.487321228E-2,-2.869493600E0,1.362616132E0,3.177722408E0
1.182857692E1,8.035746610E-1,-4.984463076E0,-1.580546830E0,5.290437853E0
1.183849792E1,2.518087049E0,-5.711567266E0,-7.824298428E0,1.000911629E1
1.184841892E1,4.667707125E0,-5.234036858E0,-1.668953222E1,1.810312452E1
1.185834092E1,5.883611646E0,-4.472092618E0,-1.872765291E1,2.013309420E1
1.186826192E1,5.898271201E0,-5.014609566E0,-1.063283071E1,1.315268038E1
1.187818392E1,5.028285618E0,-6.693243438E0,-2.025447728E0,8.613106436E0
1.188810492E1,4.080149075E0,-7.143526990E0,2.163265139E0,8.506310034E0
1.189802692E1,1.629514045E0,-6.026043972E0,2.868273286E0,6.869899098E0
1.190794792E1,-1.351155736E0,-5.431072238E0,8.756375009E-1,5.664707275E0
1.191786992E1,-2.782768866E0,-5.900224171E0,-2.657303698E0,7.043984013E0
1.192779092E1,-1.406688497E0,-6.972555574E0,-5.872890776E0,9.224215405E0
1.193771292E1,1.514947210E0,-8.985176557E0,-5.960090888E0,1.088811950E1
1.194763392E1,3.782148361E0,-1.069537253E1,-3.661790443E0,1.192075287E1
1.195755592E1,4.069634027E0,-1.022936465E1,-2.935709516E0,1.139386732E1
1.196747692E1,3.508974924E0,-8.221630765E0,-3.917834462E0,9.759997148E0
1.197739792E1,3.207491608E0,-8.142605061E0,-4.006392297E0,9.625029809E0
1.198731992E1,3.063918198E0,-8.565923009E0,-2.221099949E0,9.364609800E0
1.199724092E1,2.163295106E0,-7.846565210E0,4.013382643E-3,8.139314923E0
1.200716292E1,2.800300281E-1,-6.304018850E0,8.254575732E-1,6.363996440E0
1.201708392E1,-1.510537240E0,-4.606959817E0,3.703478752E-1,4.862402601E0
1.202700592E1,-3.512292342E0,-2.054406940E0,4.708122495E-1,4.096150577E0
1.203692692E1,-5.759848895E0,-3.507376295E-1,1.411036779E0,5.940530361E0
1.204684892E1,-7.386979322E0,-1.043645548E0,2.063417500E0,7.740436119E0
1.205676992E1,-9.189390564E0,-3.626993955E0,2.906081382E0,1.029782953E1
1.206669192E1,-1.115982155E1,-6.497871006E0,3.547841367E0,1.339220381E1
1.207661292E1,-1.223431876E1,-8.447730315E0,3.438618886E0,1.525997388E1
1.208653392E1,-1.138419675E1,-8.247987090E0,2.997610188E0,1.437410497E1
1.209645592E1,-9.089176304E0,-6.220157499E0,2.193708082E0,1.123013091E1
1.210637692E1,-6.469804956E0,-4.266892186E0,1.321533741E0,7.862009700E0
1.211629892E1,-4.097301883E0,-3.165941586E0,2.351746627E0,5.686983475E0
1.212621992E1,-1.773090963E0,-3.812796249E0,8.327902740E0,9.329267434E0
1.213614192E1,1.198459500E0,-4.949458719E0,7.621801164E0,9.166531502E0
1.214606292E1,4.213912904E0,-5.578902714E0,8.828363004E-1,7.047028976E0
1.215598492E1,5.234386522E0,-5.136314097E0,2.911240965E-2,7.333578410E0
1.216590592E1,5.123967116E0,-3.279419670E0,2.698513705E0,6.655194106E0
1.217582792E1,4.123861690E0,5.682446963E-1,5.940146036E0,7.253583404E0
1.218574892E1,3.652609145E0,3.283513890E0,9.587120512E0,1.077199595E1
1.219567092E1,4.246912835E0,4.901766490E0,9.576033606E0,1.156563889E1
1.220559192E1,4.630631100E0,6.064753125E0,8.735170081E0,1.159858488E1
1.221551292E1,4.845995454E0,7.669073564E0,8.150019915E0,1.219512960E1
1.222543492E1,4.944673358E0,9.219404907E0,7.524246803E0,1.288648561E1
1.223535592E1,4.777519004E0,1.036454292E1,6.772720547E0,1.327095254E1
1.224527792E1,4.285092815E0,1.169114751E1,7.231795973E0,1.439943830E1
1.225519892E1,3.813211402E0,1.207723799E1,8.294588814E0,1.513936796E1
1.226512092E1,3.289163762E0,1.100339566E1,8.907117983E0,1.453375606E1
1.227504192E1,2.857794198E0,9.690974663E0,9.062239936E0,1.357225737E1
1.228496392E1,2.314090851E0,9.041215687E0,9.663928952E0,1.343466116E1
1.229488492E1,1.844340894E0,9.155612369E0,1.017350736E1,1.381039765E1
1.230480692E1,1.841520636E0,9.277852505E0,1.005821898E1,1.380715447E1
1.231472792E1,1.964387009E0,8.863363853E0,8.780174931E0,1.262970732E1
1.232464892E1,2.279908320E0,7.628537157E0,6.889559610E0,1.052894072E1
1.233457092E1,2.843465304E0,6.055220409E0,4.536965722E0,8.083009780E0
1.234449192E1,2.985595914E0,4.828262311E0,9.450924826E-1,5.754919609E0
1.235441392E1,1.995567579E0,3.796757337E0,-4.597603687E0,6.287735355E0
1.236433492E1,-5.847746287E-1,2.284804779E0,-1.530223353E1,1.548291462E1
1.237425692E1,-3.531814148E0,-1.489264192E0,-2.282303457E1,2.314265598E1
1.238417792E1,-3.003644514E0,-8.247865468E0,-1.539817464E1,1.772436028E1
1.239409992E1,-4.571015228E0,-1.489026327E1,-9.613611907E0,1.830397920E1
1.240402092E1,-8.140309444E0,-1.980291260E1,-6.108005564E0,2.226494368E1
1.241394292E1,-8.187203529E0,-2.067482601E1,-3.106911605E0,2.245287580E1
1.242386392E1,-3.202551295E0,-1.262201722E1,-2.679328113E0,1.329475283E1
1.243378492E1,8.256186640E-1,-3.104630606E0,-1.205408769E0,3.431237048E0
1.244370692E1,3.567214069E0,2.902599365E0,-4.572633737E-1,4.621600273E0
1.245362792E1,3.551716024E0,5.857707312E0,-2.383008766E0,7.253009888E0
1.246354992E1,-1.287444328E0,3.435728023E0,-3.811344970E0,5.290377154E0
1.247347092E1,-7.744388625E0,-1.147212017E0,-3.134231551E0,8.432974446E0
1.248339292E1,-8.220670652E0,-4.487653813E0,-5.227370448E0,1.072585029E1
1.249331392E1,-3.929687060E0,-8.613376672E0,-6.196860437E0,1.131520116E1
1.250323592E1,-3.084869356E0,-1.299004799E1,-3.413969364E0,1.378089085E1
1.251315692E1,-2.706332602E0,-1.562137222E1,-1.457543632E0,1.592092773E1
1.252307792E1,3.861591849E0,-1.086913190E1,-6.932257733E0,1.345756728E1
1.253299992E1,7.546915289E0,-2.917380542E-1,2.642548542E0,8.001506375E0
1.254292092E1,2.830246503E0,8.170017977E0,3.045796390E1,3.166144428E1
1.255284292E1,-8.374514405E0,1.319157345E1,3.154751068E1,3.520504980E1
1.256276392E1,-1.677132775E1,1.394901475E1,5.066477292E0,2.239467881E1
1.257268592E1,-8.520876060E0,9.746603903E0,-1.873824690E1,2.277550248E1
1.258260329E1,2.995837312E0,1.985904470E0,-9.325234832E0,9.993941286E0
1.259252529E1,5.552369803E0,-1.595054941E0,7.632748321E0,9.572453062E0
1.260244629E1,4.881456771E0,-2.226932546E0,1.827424695E1,1.904562811E1
1.261236729E1,7.907968868E-1,-3.593321010E0,2.134633429E1,2.166110115E1
1.262228929E1,-2.370816590E0,-4.615434771E0,1.472317558E1,1.561073056E1
1.263221029E1,-1.466374243E0,-5.630665775E0,4.661267294E0,7.455337905E0
1.264213229E1,6.955331723E-1,-5.994937370E0,4.408481929E-1,6.051230254E0
1.265205329E1,6.933856362E-1,-3.952141830E0,1.187718311E0,4.184600754E0
1.266197529E1,3.176232393E-1,-1.334711757E0,1.993811952E0,2.420253313E0
1.267189629E1,1.091824266E-1,6.705382258E-1,2.419603565E0,2.513170055E0
1.268181829E1,-1.423256144E-1,1.577327353E0,2.616472591E0,3.058454999E0
1.269173929E1,2.386833429E-3,2.026687630E0,3.035301340E0,3.649729123E0
1.270166129E1,3.939757428E-1,1.835583081E0,4.087308991E0,4.497852479E0
1.271158229E1,4.590773262E-1,1.160009817E0,4.898639399E0,5.055001753E0
1.272150329E1,6.656677875E-1,7.410638326E-1,4.656927198E0,4.762274681E0
1.273142529E1,1.431573516E0,4.953229004E-1,3.727209384E0,4.023286878E0
1.274134629E1,2.071143426E0,-7.314866781E-3,1.688197578E0,2.672021643E0
1.275126829E1,1.728778132E0,-1.888381684E-1,-2.080231168E0,2.711401003E0
1.276118929E1,5.323729053E-1,7.130831516E-1,-6.505116291E0,6.565702282E0
1.277111129E1,8.724615857E-2,1.819728940E0,-8.678145111E0,8.867312325E0
1.278103229E1,3.198986833E-1,2.543169265E0,-8.522847741E0,8.899942623E0
1.279095429E1,7.787950382E-2,2.934588313E0,-7.519824554E0,8.072523465E0
1.280087529E1,-7.401426038E-1,3.868526062E0,-6.055681170E0,7.223889492E0
1.281079629E1,-9.064137357E-1,5.274124199E0,-4.907447644E0,7.260923792E0
1.282071829E1,-9.438248062E-1,6.061074057E0,-4.017937040E0,7.332887701E0
1.283063929E1,-2.008509806E-1,6.376118528E0,-2.550026879E0,6.870070282E0
1.284056129E1,1.428513083E0,6.149210308E0,-6.667895758E-1,6.348074147E0
1.285048229E1,4.238747491E0,4.219651362E0,1.878032258E0,6.268926788E0
1.286040429E1,4.778263063E0,1.848521215E0,5.740165998E0,7.694045377E0
1.287032529E1,4.105395891E0,3.365131080E-2,7.692778176E0,8.719761688E0
1.288024629E1,3.040871397E0,-1.260978368E0,7.085630200E0,7.813009704E0
1.289016829E1,1.183321204E0,-2.577866642E0,5.948466039E0,6.590136092E0
1.290008929E1,-6.699634445E-1,-4.526597439E0,4.254151981E0,6.247939218E0
1.291001129E1,-1.838835594E0,-6.525372216E0,1.391625046E0,6.920868382E0
1.291993229E1,-2.175409367E0,-7.357721609E0,-4.879232782E0,9.092600604E0
1.292985429E1,-2.112352117E0,-4.980329679E0,-2.049139652E1,2.119346707E1
1.293977529E1,-6.167432570E-1,-1.017161754E0,-2.940762855E1,2.943167694E1
1.294969729E1,4.193810762E0,-2.147460115E-1,-1.739552504E1,1.789520762E1
1.295961829E1,7.866246353E0,-4.451797518E0,-2.400096084E0,9.351833726E0
1.296953929E1,8.503187063E0,-8.427892467E0,5.759275868E0,1.328543639E1
1.297946129E1,7.151282153E0,-7.635338638E0,8.446246877E0,1.344538281E1
1.298938229E1,3.349234255E0,-3.916739863E0,7.977935189E0,9.497666615E0
1.299930429E1,-8.863688958E-1,-3.026082619E0,3.027854326E0,4.371581826E0
1.300922529E1,-2.636703665E0,-4.951847307E0,-2.888272225E0,6.309921903E0
1.301914729E1,-2.451267407E0,-6.758864400E0,-6.195841852E0,9.491017656E0
1.302906829E1,5.982724875E-3,-9.258826835E0,-5.307691895E0,1.067227733E1
1.303899029E1,1.547832535E0,-1.094459256E1,-3.803261487E0,1.168951195E1
1.304891129E1,1.993008837E0,-8.974353361E0,-4.117698433E0,1.007306025E1
1.305883229E1,2.801910019E0,-6.213834904E0,-4.693308866E0,8.275843890E0
1.306875429E1,3.777334056E0,-5.736815543E0,-4.116046594E0,8.007567965E0
1.307867529E1,4.222741323E0,-6.970227213E0,-1.816346326E0,8.349534457E0
1.308859729E1,3.756571178E0,-7.318341781E0,2.915480196E-1,8.231339726E0
1.309851829E1,2.258870185E0,-6.528819734E0,6.529093091E-1,6.939327935E0
1.310844029E1,1.941652742E-1,-4.420823647E0,2.284741044E-1,4.430979834E0
1.311836129E1,-1.460097549E0,-1.592079878E0,1.054885212E0,2.404035358E0
1.312828329E1,-2.552209645E0,-5.068272972E-1,1.707467662E0,3.112248994E0
1.313820429E1,-3.915250577E0,-1.231323629E0,9.774556518E-1,4.219095225E0
1.314812529E1,-5.396266687E0,-2.914308999E0,1.597134211E0,6.337485999E0
1.315804729E1,-7.357815165E0,-5.237372695E0,2.983006182E0,9.511353354E0
1.316796829E1,-8.765324757E0,-7.328692523E0,4.271861150E0,1.219792810E1
1.317789029E1,-8.859959604E0,-7.404432676E0,4.545882726E0,1.240925289E1
1.318781129E1,-6.604572167E0,-5.558714617E0,3.894437413E0,9.470286398E0
1.319773329E1,-4.047171949E0,-3.518700013E0,2.547288921E0,5.937131581E0
1.320765429E1,-1.596168836E0,-2.648679932E0,1.798369354E0,3.577344360E0
1.321757629E1,8.760196164E-1,-2.475694150E0,2.540657009E0,3.653958118E0
1.322749729E1,2.682768615E0,-2.610388856E0,3.427548061E0,5.075378127E0
1.323741829E1,4.479649267E0,-3.270701471E0,2.209940538E0,5.970643420E0
1.324734029E1,5.835052274E0,-3.448023548E0,-2.284127086E-2,6.777700433E0
1.325726129E1,6.334318537E0,-2.152151336E0,1.202447447E0,6.797148414E0
1.326718329E1,5.474387242E0,-2.656524557E-1,3.441480514E0,6.471728906E0
1.327710429E1,4.915194036E0,1.298540297E0,6.644027424E0,8.365909378E0
1.328702629E1,4.331969942E0,3.033496889E0,9.229598942E0,1.063736638E1
1.329694729E1,3.755432433E0,4.488864772E0,8.444235435E0,1.027415650E1
1.330686829E1,3.573446909E0,5.844728832E0,7.752874689E0,1.034589019E1
1.331679029E1,3.328208252E0,7.395281784E0,8.141576536E0,1.149140685E1
1.332671129E1,3.144027976E0,8.448200431E0,9.181972786E0,1.286723073E1
1.333663329E1,2.700951409E0,8.712001074E0,9.220911149E0,1.296993846E1
1.334655429E1,1.920692228E0,8.902091131E0,8.725087727E0,1.261203556E1
1.335647629E1,1.599875093E0,9.315682236E0,8.649736998E0,1.281247384E1
1.336639729E1,1.613083369E0,9.703506415E0,8.733015967E0,1.315392119E1
1.337631929E1,1.698585449E0,9.656344528E0,8.506444547E0,1.298036136E1
1.338624029E1,1.990801221E0,9.252490792E0,7.986752205E0,1.238386394E1
1.339616129E1,2.332275399E0,8.803156242E0,7.399511075E0,1.173404587E1
1.340608329E1,2.744227529E0,8.219097751E0,6.584493413E0,1.088300997E1
1.341600429E1,2.838216551E0,7.390903389E0,5.037202622E0,9.383727210E0
1.342592629E1,2.830863677E0,6.265593288E0,2.951648149E0,7.482223948E0
1.343584729E1,2.817850699E0,5.001596587E0,6.476276654E-1,5.777168214E0
1.344576929E1,2.113262674E0,3.617565905E0,-2.727844216E0,4.999379589E0
1.345569029E1,-4.708485022E-1,1.707185826E0,-7.877923828E0,8.074519527E0
1.346561129E1,-4.543031623E0,-1.561843341E0,-1.367677307E1,1.449595159E1
1.347553329E1,-7.225923615E0,-6.598269453E0,-1.459667107E1,1.757310269E1
1.348545429E1,-7.699552760E0,-1.278838688E1,-1.013877958E1,1.804496614E1
1.349537629E1,-9.493498403E0,-1.791775741E1,-4.136628501E0,2.069502930E1
1.350529729E1,-8.884527265E0,-1.900801872E1,-4.034446068E0,2.136624336E1
1.351521929E1,-2.392772739E0,-1.418016337E1,-6.294129454E0,1.569772150E1
1.352514029E1,2.550723575E0,-8.178438553E0,-6.078167807E0,1.050415022E1
1.353506129E1,4.599970348E0,-4.065528697E0,-4.351663657E0,7.524973580E0
1.354498329E1,5.849012502E0,-1.935112631E-1,-2.242663311E0,6.267210909E0
1.355490429E1,4.240446107E0,3.803526074E0,-2.014930633E0,6.042196557E0
1.356482629E1,-1.293830949E0,5.841949065E0,-3.599717279E0,6.982859865E0
1.357474729E1,-6.208536158E0,3.630521581E0,-3.512504888E0,8.004017663E0
1.358466917E1,-6.352009288E0,-5.820716071E-1,-6.568767911E-1,6.412356546E0
1.359459017E1,-1.502412241E0,-3.788806293E0,3.813522181E0,5.581688552E0
1.360451117E1,-2.217632550E-1,-5.735451972E0,4.553364238E0,7.326507637E0
1.361443317E1,-2.785257734E0,-9.657430356E0,-2.398084057E0,1.033317129E1
1.362435417E1,-2.228066029E0,-1.269748139E1,-8.283580261E0,1.532344654E1
1.363427617E1,1.485505309E0,-9.028310882E0,-6.945867128E0,1.148747986E1
1.364419717E1,7.896860620E-1,-1.428822109E0,1.469245080E1,1.478287006E1
1.365411917E1,-7.822998592E0,4.847226001E0,3.051463511E1,3.187221146E1
1.366404017E1,-1.543274572E1,9.142108224E0,2.180604238E1,2.823563826E1
1.367396117E1,-1.539170411E1,1.224282412E1,1.514807754E0,1.972526148E1
1.368388317E1,-5.298350968E0,1.120171802E1,-1.737106964E1,2.133787876E1
1.369380417E1,4.552757005E0,4.998495809E0,-9.954964170E0,1.203386340E1
1.370372617E1,7.994397440E0,4.150096393E-1,4.109361765E0,8.998304148E0
1.371364717E1,5.668470363E0,-7.014308202E-1,1.367492652E1,1.481982377E1
1.372356917E1,2.272149796E0,-2.882279706E-1,1.932845549E1,1.946368238E1
1.373349017E1,3.130001383E-1,-1.242312886E0,1.842150790E1,1.846600292E1
1.374341217E1,-1.694376916E-1,-2.157335477E0,1.258240117E1,1.276713064E1
1.375333317E1,3.061635737E-1,-2.820524923E0,5.612193836E0,6.288546464E0
1.376325417E1,4.813439620E-1,-3.545212458E0,3.747758254E-1,3.597315708E0
1.377317617E1,4.238506293E-1,-3.420993040E0,-1.194081982E0,3.648105606E0
1.378309717E1,1.027703699E0,-3.457538137E0,-8.877733970E-1,3.714685245E0
1.379301917E1,1.763995327E0,-3.653512833E0,-1.256249432E-1,4.059016772E0
1.380294017E1,2.185983618E0,-2.786022842E0,1.153856792E0,3.724490992E0
1.381286217E1,2.073901850E0,-1.238549033E0,2.401432757E0,3.406163807E0
1.382278317E1,1.800866407E0,5.131808817E-1,2.058584776E0,2.782848489E0
1.383270417E1,1.736674504E0,2.328174162E0,1.100296297E0,3.105975725E0
1.384262617E1,1.277734149E0,3.102767683E0,2.707635069E-1,3.366464723E0
1.385254717E1,7.516686353E-1,2.901273801E0,-1.125887221E0,3.201564843E0
1.386246917E1,4.133431828E-1,2.493573182E0,-2.491145418E0,3.548882259E0
1.387239017E1,2.965174221E-1,2.282456537E0,-3.560882412E0,4.239978063E0
1.388231117E1,-1.244658789E-1,2.256570328E0,-5.628953125E0,6.065699852E0
1.389223317E1,1.785815674E-1,2.424450322E0,-6.596325254E0,7.030032546E0
1.390215417E1,5.146599349E-1,3.067457517E0,-6.279575150E0,7.007655423E0
1.391207617E1,5.387979721E-1,3.612992213E0,-5.936897907E0,6.970708195E0
1.392199717E1,5.407629289E-1,4.074836880E0,-3.968017021E0,5.713307205E0
1.393191917E1,5.265563875E-1,4.278032302E0,-4.899194884E-1,4.338069053E0
1.394184017E1,5.808191335E-1,3.453858485E0,2.955112624E0,4.582486216E0
1.395176117E1,-2.136011267E-1,2.804321119E0,4.944173421E0,5.688118599E0
1.396168317E1,-1.228104152E0,2.652565992E0,5.181893143E0,5.949484238E0
1.397160417E1,-1.971938980E0,1.961842008E0,4.035132824E0,4.900986055E0
1.398152617E1,-1.871233408E0,1.119683325E-1,2.642648237E0,3.240006340E0
1.399144717E1,-1.485685404E0,-2.657694000E0,7.608759534E-1,3.138396204E0
1.400136917E1,-5.878227822E-1,-4.937350890E0,-3.317713962E0,5.977473996E0
1.401129017E1,9.885098130E-1,-5.102393814E0,-1.145682853E1,1.258056017E1
1.402121217E1,3.385941028E0,-3.214681052E0,-1.973333307E1,2.027814600E1
1.403113317E1,5.792506764E0,-1.478631030E0,-1.745080695E1,1.844641287E1
1.404105417E1,6.946875188E0,-2.821393819E0,-7.471455216E0,1.058498847E1
1.405097617E1,6.122744640E0,-5.296933018E0,6.150668603E-1,8.119347792E0
1.406089717E1,4.403013028E0,-5.896706486E0,3.980305822E0,8.366630477E0
1.407081917E1,1.848561268E0,-5.480929692E0,5.087790978E0,7.703465849E0
1.408074017E1,-1.632245279E0,-5.746184537E0,3.017198360E0,6.692260255E0
1.409066117E1,-4.011285247E0,-6.055623867E0,-1.791766385E0,7.481404716E0
1.410058317E1,-4.283125811E0,-5.594382632E0,-6.409275749E0,9.524762431E0
1.411050417E1,-1.575350994E0,-5.641352731E0,-7.846426631E0,9.791476000E0
1.412042617E1,2.439744591E0,-8.327069512E0,-5.111584468E0,1.007078627E1
1.413034717E1,4.277756605E0,-1.158205016E1,-2.735375137E0,1.264616007E1
1.414026917E1,3.272326997E0,-1.036127198E1,-3.891241618E0,1.154148354E1
1.415019017E1,2.736079434E0,-6.713068423E0,-6.193524016E0,9.534734294E0
1.416011117E1,3.598804821E0,-5.799906415E0,-5.611592742E0,8.836304865E0
1.417003317E1,4.224266569E0,-6.479793754E0,-2.566900774E0,8.149916241E0
1.417995417E1,3.810660262E0,-6.567102624E0,2.386599541E-2,7.592663439E0
1.418987617E1,2.571755133E0,-5.746339488E0,9.340435839E-1,6.364493648E0
1.419979717E1,4.890001599E-1,-3.416183120E0,1.311067518E0,3.691656309E0
1.420971917E1,-1.699564127E0,-1.184922464E0,1.806404744E0,2.748755640E0
1.421964017E1,-3.445919720E0,-8.367628723E-1,1.949862818E0,4.046788829E0
1.422956117E1,-5.110136697E0,-2.413720096E0,2.259976916E0,6.086627755E0
1.423948317E1,-7.110052266E0,-5.220552009E0,2.866886326E0,9.275022572E0
1.424940417E1,-8.896310574E0,-7.720700970E0,3.158089360E0,1.219537181E1
1.425932617E1,-9.190679875E0,-8.517082386E0,3.567909011E0,1.302840219E1
1.426924717E1,-7.915954703E0,-6.463496979E0,3.273625664E0,1.073106505E1
1.427916817E1,-6.333557814E0,-3.933101542E0,2.570871034E0,7.886229784E0
1.428909017E1,-3.555298905E0,-3.300714059E0,3.018429199E0,5.713648435E0
1.429901117E1,-1.890208646E0,-2.441772698E0,4.141264466E0,5.165773322E0
1.430893317E1,-9.867454156E-2,-2.410505882E0,6.794364601E0,7.209969875E0
1.431885417E1,2.471554322E0,-2.803980811E0,4.320180202E0,5.712691671E0
1.432877617E1,4.655432065E0,-3.044774414E0,6.081422952E-1,5.595849890E0
1.433869717E1,6.231780594E0,-3.035235851E0,8.442706972E-2,6.932162287E0
1.434861817E1,6.008313460E0,-1.086360628E0,2.529884976E0,6.609109474E0
1.435854017E1,5.223011348E0,8.699247712E-1,4.685425358E0,7.070348466E0
1.436846117E1,4.866854812E0,2.503033977E0,6.637472695E0,8.602761105E0
1.437838317E1,4.594709023E0,3.657937421E0,8.357059881E0,1.021431873E1
1.438830417E1,4.248475504E0,4.658733988E0,9.368352200E0,1.129244745E1
1.439822517E1,3.941356641E0,5.704254738E0,8.357632908E0,1.085922843E1
1.440814717E1,3.479523668E0,6.905728916E0,8.789131111E0,1.170662216E1
1.441806817E1,3.224744402E0,7.549408541E0,9.423072199E0,1.249747316E1
1.442799017E1,2.376743474E0,8.604943818E0,9.729130084E0,1.320416373E1
1.443791117E1,1.996874431E0,9.477929022E0,9.596018220E0,1.363459613E1
1.444783317E1,1.858559715E0,9.536763706E0,9.897097785E0,1.386927002E1
1.445775417E1,1.704613928E0,9.245074768E0,9.931502802E0,1.367522812E1
1.446767517E1,1.869159547E0,8.897588775E0,9.545925708E0,1.318277441E1
1.447759717E1,2.413775353E0,8.549818608E0,8.938705811E0,1.260262557E1
1.448751817E1,2.993315408E0,8.310695554E0,7.781792094E0,1.177216573E1
1.449744017E1,3.026654477E0,8.027118459E0,5.959138377E0,1.044541039E1
1.450736117E1,3.024944167E0,7.315063832E0,3.645348950E0,8.714873209E0
1.451728217E1,3.223816157E0,6.492257094E0,8.301379770E-1,7.295993548E0
1.452720417E1,2.741453902E0,5.766703586E0,-2.233334078E0,6.764482305E0
1.453712517E1,8.567761374E-1,4.280605077E0,-6.684885428E0,7.984067783E0
1.454704717E1,-2.397007731E0,1.973776760E0,-1.325805161E1,1.361680482E1
1.455696817E1,-5.885100932E0,-2.738184432E0,-1.669146765E1,1.790913619E1
1.456689017E1,-6.403909759E0,-1.096745751E1,-1.375608587E1,1.872231510E1
1.457681117E1,-7.313235408E0,-1.934366410E1,-7.189605973E0,2.189409023E1
1.458673267E1,-8.732428322E0,-2.601634405E1,-5.548391358E0,2.799803758E1
1.459665467E1,-2.792616747E0,-2.371128978E1,-7.835353174E0,2.512800689E1
1.460657567E1,4.352168564E0,-1.253551352E1,-7.575547349E0,1.527970510E1
1.461649767E1,6.104393739E0,-2.808673201E0,-6.576516641E0,9.402278405E0
1.462641867E1,6.998194445E0,4.575320533E0,-4.706262203E0,9.594643683E0
1.463633967E1,4.872854055E0,9.821224315E0,-3.972107148E0,1.166099434E1
1.464626167E1,-7.811546820E-1,9.242359906E0,-4.016408578E0,1.010756930E1
1.465618267E1,-6.203730916E0,3.005184671E0,-7.656636536E-2,6.893712685E0
1.466610467E1,-5.202592871E0,-2.941010894E0,3.321024363E0,6.837084209E0
1.467602567E1,-2.791582667E0,-5.971701704E0,4.794975574E0,8.151438265E0
1.468594767E1,-3.286540701E0,-8.898353006E0,2.105015469E0,9.716641710E0
1.469586867E1,-4.778215700E0,-1.505140903E1,-5.639230192E0,1.676833850E1
1.470578967E1,-2.009551780E0,-1.783865628E1,-1.114556019E1,2.113006077E1
1.471571167E1,1.739611561E0,-9.330190932E0,4.519463836E0,1.051210086E1
1.472563267E1,-3.158604792E0,2.757841601E0,3.340279478E1,3.366495468E1
1.473555467E1,-9.369726296E0,1.095346512E1,3.187919281E1,3.498647029E1
1.474547567E1,-1.265654386E1,1.511684873E1,8.502462008E0,2.147088909E1
1.475539667E1,-8.020602322E0,1.394293365E1,-2.029113873E1,2.589335381E1
1.476531867E1,-6.924942282E-1,7.232261996E0,-1.311362305E1,1.499174010E1
1.477523967E1,2.157381232E0,2.585299623E0,5.530626347E0,6.475020904E0
1.478516167E1,2.330667122E0,7.064179105E-1,1.535843697E1,1.555032545E1
1.479508267E1,7.072904612E-1,-7.930221909E-1,2.032112326E1,2.034888681E1
1.480500467E1,-7.170032711E-1,-1.990639545E0,1.818773856E1,1.831039523E1
1.481492567E1,1.714747153E-1,-3.441443676E0,1.213450328E1,1.261424227E1
1.482484667E1,1.755321860E0,-3.991749700E0,5.173252712E0,6.765926701E0
1.483476867E1,2.764148116E0,-3.360895357E0,-6.686057210E-2,4.352080278E0
1.484468967E1,2.957839181E0,-2.776220570E0,-2.515685889E0,4.773351942E0
1.485461167E1,2.334171359E0,-2.645023084E0,-1.885566980E0,3.999983235E0
1.486453267E1,1.989004371E0,-2.418841088E0,-7.703776789E-1,3.224967033E0
1.487445367E1,2.262622489E0,-1.446397669E0,8.339999899E-1,2.811953543E0
1.488437567E1,2.386465639E0,-2.086415184E-1,1.985270047E0,3.111277341E0
1.489429667E1,1.580212223E0,1.637653661E0,2.015344616E0,3.039834552E0
1.490421867E1,1.103417102E0,3.323790681E0,8.144177377E-1,3.595607048E0
1.491413967E1,1.119458792E0,3.693253434E0,-3.546337024E-1,3.875445004E0
1.492406067E1,1.323020250E0,2.999935625E0,-1.475218595E0,3.595311703E0
1.493398267E1,1.912151493E0,2.184773537E0,-2.259529020E0,3.678998522E0
1.494390367E1,2.426139875E0,1.470800439E0,-2.605106481E0,3.851751342E0
1.495382567E1,2.676776096E0,9.089379787E-1,-3.418164157E0,4.435667336E0
1.496374667E1,2.058635647E0,7.238706797E-1,-5.366573356E0,5.793278785E0
1.497366767E1,1.607562866E0,1.006894628E0,-5.942684312E0,6.238075985E0
1.498358967E1,1.495856781E0,1.972295660E0,-4.895162060E0,5.485448867E0
1.499351067E1,8.502500600E-1,3.032925031E0,-2.287734818E0,3.892979580E0
1.500343267E1,-1.994783467E-1,3.729124932E0,-4.445105964E-1,3.760818268E0
1.501335367E1,-9.949288863E-1,3.105823438E0,5.433083680E-1,3.306237544E0
1.502327567E1,-2.405844774E0,2.708066593E0,7.699753904E-1,3.703319572E0
1.503319667E1,-3.070795693E0,2.611233194E0,1.040342748E0,4.163008289E0
1.504311767E1,-2.390174382E0,2.135810707E0,6.751508018E-1,3.275736491E0
1.505303967E1,-1.240981767E0,8.287135953E-1,-5.515444636E-1,1.590912715E0
1.506296067E1,-5.622685495E-1,-9.628539848E-1,-2.406535038E0,2.652290445E0
1.507288267E1,2.216050878E-2,-1.752793524E0,-5.304687595E0,5.586813645E0
1.508280367E1,1.465772418E0,-1.218938642E0,-8.467153012E0,8.679111724E0
1.509272467E1,3.265104516E0,-8.401788157E-1,-1.036403538E1,1.089862548E1
1.510264667E1,5.178118765E0,-2.482671633E0,-9.176419101E0,1.082512078E1
1.511256767E1,5.995876433E0,-5.626503142E0,-5.187269658E0,9.721925648E0
1.512248967E1,5.074984406E0,-8.117411748E0,-1.460248846E0,9.684016052E0
1.513241067E1,3.182182812E0,-8.520674915E0,8.451343310E-1,9.134683383E0
1.514233167E1,1.044075465E0,-7.139225194E0,1.408791302E0,7.351416386E0
1.515225367E1,-1.171868702E0,-5.671517347E0,-2.549441573E-1,5.796928652E0
1.516217467E1,-2.401023014E0,-4.878530239E0,-3.404982486E0,6.415518260E0
1.517209667E1,-1.176420759E0,-5.381090823E0,-5.302160429E0,7.645456786E0
1.518201767E1,1.873574926E0,-8.594158629E0,-4.377876140E0,9.825255469E0
1.519193867E1,3.071820710E0,-1.278359216E1,-3.043653210E0,1.349518936E1
1.520186067E1,2.439783183E0,-1.177103451E1,-4.266685195E0,1.275595539E1
1.521178167E1,2.416826430E0,-7.324348626E0,-5.089688984E0,9.240782799E0
1.522170367E1,3.301741415E0,-5.782892187E0,-3.598086783E0,7.568987179E0
1.523162467E1,4.230491515E0,-6.467793514E0,-1.195369977E0,7.820378557E0
1.524154567E1,4.157489027E0,-6.896631818E0,4.503607357E-1,8.065424368E0
1.525146767E1,3.100972003E0,-6.001273413E0,1.318499621E0,6.882568648E0
1.526138867E1,8.320076242E-1,-3.969590507E0,1.663990105E0,4.383919314E0
1.527131067E1,-1.787839542E0,-1.951522842E0,1.878263662E0,3.245409992E0
1.528123167E1,-4.334583648E0,-1.383315568E0,2.160978878E0,5.037063338E0
1.529115267E1,-6.449719185E0,-3.104271587E0,2.829508585E0,7.696849907E0
1.530107467E1,-8.214031724E0,-5.675829084E0,3.344203311E0,1.052943725E1
1.531099567E1,-9.990944427E0,-7.905075374E0,3.475247015E0,1.320554918E1
1.532091767E1,-1.066348766E1,-8.534297758E0,3.096601210E0,1.400475442E1
1.533083867E1,-9.477086438E0,-6.944306506E0,2.549039869E0,1.202231943E1
1.534075967E1,-7.965499331E0,-4.596060607E0,1.850139724E0,9.380616701E0
1.535068167E1,-6.729848762E0,-2.771492511E0,1.392954118E0,7.410287193E0
1.536060267E1,-4.939483370E0,-1.586374165E0,1.341622581E0,5.358640695E0
1.537052467E1,-2.665913431E0,-7.641322678E-1,2.056576257E0,3.452607485E0
1.538044567E1,1.326955426E-1,-1.054192171E0,5.245761695E0,5.352284092E0
1.539036767E1,3.733606823E0,-1.862265680E0,2.893751066E0,5.077563255E0
1.540028867E1,5.648347170E0,-1.787627726E0,2.581151024E-1,5.930097980E0
1.541020967E1,7.710277138E0,-2.808573214E0,4.070623669E0,9.160045529E0
1.542013167E1,8.098942147E0,-1.333295562E0,5.361861670E0,9.804085961E0
1.543005267E1,6.429966121E0,1.238540847E0,6.265668132E0,9.062949018E0
1.543997467E1,6.161442683E0,2.793119608E0,7.959403608E0,1.044590824E1
1.544989567E1,6.591712385E0,3.877574628E0,9.583332685E0,1.226077169E1
1.545981667E1,6.284498506E0,5.512225159E0,9.755957694E0,1.284750008E1
1.546973867E1,5.549560801E0,6.866545554E0,9.217332653E0,1.276347500E1
1.547965967E1,4.797428189E0,7.612956666E0,8.297583173E0,1.224019252E1
1.548958067E1,3.672267192E0,8.326363753E0,7.483198764E0,1.178185654E1
1.549950267E1,2.793078385E0,8.996091555E0,7.669964679E0,1.214739924E1
1.550942367E1,2.223062859E0,8.861281074E0,7.822587533E0,1.202735160E1
1.551934567E1,1.862116868E0,8.531139677E0,8.128947135E0,1.193011337E1
1.552926667E1,1.640364138E0,8.522929017E0,8.498318671E0,1.214712039E1
1.553918767E1,1.564022891E0,8.577520961E0,8.701607063E0,1.231819788E1
1.554910967E1,1.691371739E0,8.489140297E0,8.455366779E0,1.210039126E1
1.555903067E1,2.058429240E0,8.052004209E0,7.765002984E0,1.137396914E1
1.556895267E1,2.839293315E0,7.170425352E0,6.842666695E0,1.031012482E1
1.557887367E1,3.643482226E0,5.919912331E0,4.992269694E0,8.558217188E0
1.558879433E1,3.494026810E0,4.613827372E0,9.768919802E-1,5.869407492E0
1.559871633E1,2.749981774E0,3.830787547E0,-3.468556631E0,5.853906225E0
1.560863733E1,9.400708938E-1,2.964890338E0,-1.022026638E1,1.068307787E1
1.561855933E1,-2.499377128E0,1.031640045E0,-1.919432387E1,1.938383956E1
1.562848033E1,-5.603524754E0,-3.609387989E0,-1.744393531E1,1.867399396E1
1.563840233E1,-6.892425331E0,-1.050628878E1,-9.605063277E0,1.581596887E1
1.564832333E1,-8.606940057E0,-1.637126593E1,-2.973920778E0,1.873344523E1
1.565824433E1,-9.456390803E0,-1.973177304E1,-2.171204488E0,2.198818599E1
1.566816633E1,-5.466059053E0,-1.704803671E1,-5.335900617E0,1.868114537E1
1.567808733E1,5.688431588E-1,-9.357795053E0,-5.727471108E0,1.098616567E1
1.568800833E1,3.638236105E0,-2.703775907E0,-4.942008782E0,6.706013488E0
1.569793033E1,5.955838793E0,2.664531734E0,-2.972105218E0,7.169738804E0
1.570785133E1,3.711865998E0,6.932689258E0,-4.310812962E0,8.967900419E0
1.571777333E1,-2.906805267E0,7.195512246E0,-6.354046458E0,1.002989630E1
1.572769433E1,-6.763711742E0,2.816425440E0,-2.551704738E0,7.758301738E0
1.573761533E1,-3.635148775E0,-2.385596159E0,3.033170030E-1,4.358598037E0
1.574753733E1,-1.685630943E0,-7.077209625E0,-7.732030535E-1,7.316152726E0
1.575745833E1,-5.598851659E0,-1.323991940E1,-2.362363417E0,1.456788820E1
1.576738033E1,-8.528203205E0,-2.128504143E1,-3.507171643E0,2.319662673E1
1.577730133E1,-3.256419939E0,-2.340795728E1,-8.676074027E0,2.517560318E1
1.578722233E1,4.547054508E0,-1.051382935E1,2.254712668E0,1.167476087E1
1.579714433E1,1.873246166E0,5.581680726E0,3.287264879E1,3.339573699E1
1.580706533E1,-5.962394106E0,1.438146780E1,3.662710854E1,3.979851554E1
1.581698733E1,-1.212701767E1,1.870035343E1,1.843244336E1,2.892270293E1
1.582690833E1,-1.169630943E1,1.880596701E1,-1.261367909E1,2.548672105E1
1.583682933E1,-2.757483752E0,1.207762507E1,-2.626292815E1,2.903814972E1
1.584675133E1,2.659573295E0,3.214629012E0,-3.040051618E0,5.162275044E0
1.585667233E1,4.084235987E0,-8.231207335E-1,1.296310636E1,1.361619029E1
1.586659433E1,1.215974396E0,-1.750209639E0,2.177131694E1,2.187537585E1
1.587651533E1,-1.622449439E0,-2.804863155E0,2.210663371E1,2.234284792E1
1.588643633E1,-2.103423711E0,-2.647613985E0,1.669726107E1,1.703621960E1
1.589635833E1,-1.160126762E0,-1.074630529E0,1.174728195E1,1.185324251E1
1.590627933E1,2.898602208E-1,-1.383032563E0,3.923714130E0,4.170411321E0
1.591620133E1,2.066859463E0,-3.740151612E0,-2.567424685E0,4.985209286E0
1.592612233E1,2.820243087E0,-4.864391087E0,-2.933843962E0,6.342200889E0
1.593604333E1,2.608194396E0,-4.511094131E0,-2.293442870E0,5.693200196E0
1.594596533E1,3.460259432E0,-3.362973458E0,-8.865758141E-1,4.906016967E0
1.595588633E1,4.109215877E0,-1.771430354E0,9.069347227E-1,4.565758558E0
1.596580733E1,4.187536114E0,-1.781354249E-1,1.674340847E0,4.513381018E0
1.597572933E1,3.559164500E0,8.137938398E-1,1.454663293E0,3.930134558E0
1.598565033E1,2.905403982E0,1.477949245E0,3.561398721E-1,3.279106872E0
1.599557233E1,2.487426881E0,1.393088604E0,-8.728676748E-1,2.981591240E0
1.600549333E1,1.597555503E0,1.318888607E0,-1.534532166E0,2.578068989E0
1.601541433E1,1.187228606E0,1.016230878E0,-2.052986652E0,2.580114562E0
1.602533633E1,1.037170634E0,1.355985682E0,-2.702700019E0,3.196718237E0
1.603525733E1,2.571152285E-2,2.468421384E0,-4.572825526E0,5.196585273E0
1.604517933E1,-6.840188353E-1,3.166914563E0,-6.946657087E0,7.665068447E0
1.605510033E1,-1.118587265E0,3.893549806E0,-6.981341016E0,8.071560564E0
1.606502133E1,-6.964438762E-1,5.138667601E0,-5.408551687E0,7.492887971E0
1.607494333E1,-7.062686603E-1,6.100315306E0,-3.015103303E0,6.841309098E0
1.608486433E1,-6.007022980E-1,5.802546433E0,7.315583065E-2,5.834015781E0
1.609478633E1,-1.693245479E-1,4.776211567E0,2.465505962E0,5.377693500E0
1.610470733E1,-1.780664277E-1,4.217613022E0,5.209472705E0,6.705115445E0
1.611462833E1,-5.928920259E-1,3.311946561E0,5.753072557E0,6.664709658E0
1.612455033E1,-1.600894555E0,1.372610486E0,4.951606987E0,5.381945250E0
1.613447133E1,-2.033288552E0,-9.637451005E-1,4.038856623E0,4.623356981E0
1.614439233E1,-1.590985571E0,-2.939164928E0,3.158879904E0,4.598744156E0
1.615431433E1,-1.092867410E0,-4.749107968E0,3.791492504E-1,4.887958656E0
1.616423533E1,-1.531812626E-1,-5.335656204E0,-5.699894469E0,7.809064514E0
1.617415733E1,1.955984560E0,-4.218518171E0,-1.866632731E1,1.923677589E1
1.618407833E1,4.710520146E0,-2.623217647E0,-2.512457349E1,2.569658468E1
1.619399933E1,7.224982213E0,-3.000632613E0,-1.409903559E1,1.612411141E1
1.620392133E1,7.589619259E0,-6.519050791E0,-1.803066130E0,1.016618863E1
1.621384233E1,6.886541862E0,-8.495164683E0,4.245580255E0,1.173103719E1
1.622376433E1,4.193037760E0,-7.564934653E0,5.269489696E0,1.012804639E1
1.623368533E1,7.099952370E-1,-5.582885837E0,2.973612045E0,6.365145411E0
1.624360633E1,-1.582895802E0,-5.246827642E0,-1.136951615E0,5.597090173E0
1.625352833E1,-2.185140450E0,-5.824098101E0,-5.321229368E0,8.185990439E0
1.626344933E1,-1.289727665E-1,-7.423012789E0,-5.887669029E0,9.475357483E0
1.627337133E1,1.387453350E0,-9.806545465E0,-3.159520758E0,1.039595749E1
1.628329233E1,1.211742619E0,-1.006016494E1,-2.897597364E0,1.053903739E1
1.629321333E1,1.615553233E0,-7.112908630E0,-4.707603262E0,8.681302316E0
1.630313533E1,3.443169482E0,-5.515623561E0,-4.874008588E0,8.126098637E0
1.631305633E1,4.705553228E0,-6.009834321E0,-3.260427621E0,8.300043857E0
1.632297733E1,4.388071638E0,-6.478122620E0,-1.169763558E0,7.911358427E0
1.633289933E1,2.568301182E0,-5.845925757E0,-3.660884710E-1,6.395704784E0
1.634282033E1,-1.234829620E-2,-4.189024231E0,-9.295378657E-1,4.290934296E0
1.635274233E1,-2.033211076E0,-2.548746339E0,3.823669732E-1,3.282721384E0
1.636266333E1,-3.686320390E0,-1.999381717E0,1.969663244E0,4.633147803E0
1.637258433E1,-5.343838212E0,-2.600030513E0,2.176945285E0,6.328969607E0
1.638250633E1,-6.822165188E0,-4.872155020E0,2.892624600E0,8.868320555E0
1.639242733E1,-8.634951729E0,-7.390233883E0,3.669096247E0,1.194320792E1
1.640234933E1,-9.903284140E0,-9.066517174E0,4.407477962E0,1.413161818E1
1.641227033E1,-1.001824157E1,-8.686503705E0,4.554559994E0,1.402014720E1
1.642219133E1,-8.834588535E0,-6.479746392E0,3.611233370E0,1.153594705E1
1.643211333E1,-6.534192156E0,-4.153063270E0,2.479841580E0,8.129773423E0
1.644203433E1,-4.152049655E0,-2.732838907E0,2.092254213E0,5.393093039E0
1.645195533E1,-1.789746465E0,-2.090505896E0,2.067081657E0,3.441835831E0
1.646187733E1,6.853223258E-1,-2.026323933E0,3.703341050E0,4.276726588E0
1.647179833E1,2.924641906E0,-2.699040831E0,2.746087821E0,4.835219748E0
1.648172033E1,4.650617175E0,-3.573814114E0,1.260191040E0,5.999038997E0
1.649164133E1,6.460199150E0,-3.556378301E0,8.350382361E-1,7.421542194E0
1.650156233E1,7.643280326E0,-2.453598692E0,2.723301221E0,8.476806605E0
1.651148433E1,7.009419930E0,-8.172396040E-1,5.023717774E0,8.662423944E0
