"Time (s)","Linear Acceleration x (m/s^2)","Linear Acceleration y (m/s^2)","Linear Acceleration z (m/s^2)","Absolute acceleration (m/s^2)"
1.327691670E-2,-1.247181278E0,9.380699766E-1,1.072886889E0,1.893811685E0
2.320091671E-2,-1.331065434E0,1.026109164E0,1.581543195E0,2.307794203E0
3.312391660E-2,-1.323088954E0,9.652478349E-1,2.019070462E0,2.599791010E0
4.304791661E-2,-1.293440794E0,6.707142270E-1,2.201228771E0,2.639745208E0
5.297091661E-2,-1.167041679E0,2.113300681E-1,2.185764640E0,2.486807942E0
6.289491663E-2,-1.127080345E0,-1.543062669E-1,1.898732425E0,2.213437451E0
7.281891664E-2,-1.196122368E0,-3.003556806E-1,1.646947811E0,2.057512903E0
8.274191665E-2,-1.315344610E0,-1.437900496E-1,1.526916168E0,2.020465294E0
9.266591666E-2,-1.330852887E0,1.833850551E-1,1.617852066E0,2.102913406E0
1.025889167E-1,-1.154191399E0,5.027938879E-1,2.048983063E0,2.404847412E0
1.125129167E-1,-7.602257431E-1,4.774210650E-1,2.491127291E0,2.647940565E0
1.224369167E-1,-4.541235651E-1,3.670531154E-2,2.518389934E0,2.559270082E0
1.323599167E-1,-4.502135320E-1,-5.046597344E-1,1.960573162E0,2.073938475E0
1.422839167E-1,-4.099497512E-1,-4.742384255E-1,1.500204332E0,1.625907107E0
1.522069167E-1,-3.297946572E-1,-6.771227753E-1,1.291919494E0,1.495431626E0
1.621309166E-1,-3.344056253E-1,-9.143671185E-1,3.172477019E-1,1.023982643E0
1.720539166E-1,-3.219462320E-1,-9.404515475E-1,-3.857519263E-1,1.066256554E0
1.819779166E-1,-2.176783901E-1,-1.126378387E0,-1.461815023E0,1.858229080E0
1.919019166E-1,4.243470579E-3,-8.769425994E-1,-2.127836859E0,2.301463888E0
2.018249166E-1,6.979017332E-2,-5.531895778E-1,-2.070998999E0,2.144743862E0
2.117489167E-1,2.623160344E-1,-6.874238151E-1,-2.415556122E0,2.525128231E0
2.216719167E-1,8.599944448E-1,-5.053011739E-1,-2.645811288E0,2.827585029E0
2.315959167E-1,1.112730986E0,-9.901616514E-2,-2.902231575E0,3.109810696E0
2.415189167E-1,1.009110723E0,-4.715574771E-2,-3.359197910E0,3.507811101E0
2.514429167E-1,1.132465193E0,-8.128506839E-2,-3.659395131E0,3.831482403E0
2.613669167E-1,9.390818372E-1,-6.193166167E-2,-3.729909044E0,3.846807989E0
2.712899167E-1,4.067444538E-1,-3.072577339E-1,-3.788993989E0,3.823130107E0
2.812139166E-1,-1.061246252E-1,-5.282781002E-1,-4.048700411E0,4.084399001E0
2.911369166E-1,-6.188780755E-1,-4.167953789E-1,-4.297452659E0,4.361745960E0
3.010609166E-1,-1.235670741E0,1.108462518E-1,-4.416480920E0,4.587425508E0
3.109849166E-1,-9.338091105E-1,2.962070811E-1,-4.278547441E0,4.389271727E0
3.209079166E-1,-7.437358640E-2,4.517789778E-1,-4.073062250E0,4.098715868E0
3.308319167E-1,3.145999365E-1,9.667517388E-1,-3.656686116E0,3.795383432E0
3.407549167E-1,7.222933933E-2,1.429776082E0,-2.471486494E0,2.856172651E0
3.506789167E-1,-6.008526080E-1,1.560713367E0,-1.220506280E0,2.070382972E0
3.606019167E-1,-1.113692414E0,1.463802491E0,-5.413118362E-1,1.917302019E0
3.705259167E-1,-1.239506223E0,1.237092492E0,3.524637276E-1,1.786338207E0
3.804499167E-1,-1.128269377E0,4.773340876E-1,1.372205274E0,1.839507252E0
3.903729167E-1,-1.348028499E0,6.291523643E-1,1.211455960E0,1.918499172E0
4.002969166E-1,-1.583772739E0,1.097889729E0,4.399673098E-1,1.976681355E0
4.102199166E-1,-1.303413366E0,1.154832985E0,-1.389403689E-1,1.746948784E0
4.201439166E-1,-1.077739639E0,1.616772377E0,-7.614828944E-3,1.943073245E0
4.300669166E-1,-1.256921277E0,1.836775328E0,1.899889004E-1,2.233761510E0
4.399909166E-1,-1.295054625E0,1.563888551E0,1.045006195E0,2.283626902E0
4.499149167E-1,-1.280946171E0,1.276376426E0,1.642970535E0,2.443217561E0
4.598379167E-1,-1.381639317E0,8.920028342E-1,2.746495664E0,3.201223937E0
4.697619167E-1,-1.584454816E0,9.327573426E-1,4.310182047E0,4.685958025E0
4.796849167E-1,-1.378800640E0,7.266788051E-1,6.366265969E0,6.554273086E0
4.896089167E-1,3.960635642E-1,-1.769220399E0,1.003944942E1,1.020184061E1
4.995319167E-1,1.768705844E0,-3.985149363E0,9.481772981E0,1.043617529E1
5.094559167E-1,1.632756180E0,-2.981489999E0,4.785648973E0,5.870060600E0
5.193799166E-1,2.019832647E0,-1.262098987E0,9.631375748E-1,2.569095514E0
5.293029166E-1,2.964906710E0,-6.647484590E-1,-1.335445583E-1,3.041446443E0
5.392269166E-1,3.690849936E0,-6.920379992E-1,3.617017436E-1,3.772547944E0
5.491499166E-1,3.943577121E0,-3.133350375E-1,1.694523096E0,4.303648206E0
5.590739166E-1,3.832144686E0,5.879425040E-1,2.642235716E0,4.691739428E0
5.689969166E-1,3.395651207E0,1.260131837E0,2.923395572E0,4.654526940E0
5.789209167E-1,2.419915221E0,1.175451291E0,2.216026905E0,3.485462761E0
5.888449167E-1,1.616626635E0,3.969404273E-1,1.274999991E0,2.096823397E0
5.987679167E-1,9.051954684E-1,-1.361398888E0,7.534961826E-1,1.800150623E0
6.086919167E-1,6.915950726E-1,-2.147539491E0,8.990421510E-1,2.428684088E0
6.186149167E-1,9.647153728E-1,-2.271331332E0,1.900032261E0,3.114441260E0
6.285389167E-1,1.187965063E0,-2.353865073E0,2.042100306E0,3.334983573E0
6.384619167E-1,6.460535949E-1,-2.184441123E0,1.807303607E0,2.907836755E0
6.483859166E-1,-7.540781267E-2,-2.984779935E0,1.189380966E0,3.213911119E0
6.583099166E-1,-1.172996776E0,-2.943639510E0,8.794335133E-1,3.288516125E0
6.682329166E-1,-9.084907398E-1,-1.807072934E0,-4.407496673E-1,2.070055140E0
6.781569166E-1,8.375515886E-1,-6.908169544E-1,-2.000418429E0,2.276048026E0
6.880799166E-1,1.554109960E0,-5.550715041E-1,-3.045477249E0,3.463855340E0
6.980072916E-1,1.418060016E0,-3.944993609E-1,-3.268732713E0,3.584848324E0
7.079302917E-1,1.655677119E0,-5.971118152E-2,-2.515787923E0,3.012311575E0
7.178542917E-1,1.117991799E0,-4.397720128E-2,-1.712506208E0,2.045609241E0
7.277782917E-1,4.687726676E-1,-1.926201475E-1,-1.175996105E0,1.280553464E0
7.377012917E-1,3.823902889E-1,-6.967182568E-1,-1.328766308E0,1.548308291E0
7.476252917E-1,-4.030427277E-2,-1.269025014E0,-7.304441196E-1,1.464785831E0
7.575482917E-1,-9.508928474E-1,-1.139824937E0,-9.263767147E-1,1.749734812E0
7.674722916E-1,-1.690904839E0,-8.772367144E-1,-1.528428258E0,2.442293260E0
7.773952916E-1,-1.643330138E0,-9.661445054E-1,-2.052855674E0,2.801461327E0
7.873192916E-1,-1.257938108E0,-1.277571012E0,-2.701252248E0,3.242122713E0
7.972432916E-1,-1.588408411E0,-6.716249308E-1,-3.316046628E0,3.737684654E0
8.071662916E-1,-1.936542276E0,-3.002483842E-1,-3.591307229E0,4.091189642E0
8.170902916E-1,-1.471547567E0,-7.547661978E-1,-3.306796918E0,3.697300382E0
8.270132917E-1,-1.379149134E0,-1.132009548E0,-3.264436179E0,3.720220628E0
8.369372917E-1,-1.355024107E0,-9.932671076E-1,-3.361188303E0,3.757693000E0
8.468602917E-1,-1.245913455E0,-8.857400277E-1,-3.194123996E0,3.541082297E0
8.567842917E-1,-1.168061141E0,-8.389517775E-1,-2.993508950E0,3.321039408E0
8.667072917E-1,-1.215171573E0,-7.302909225E-1,-2.793121946E0,3.132330920E0
8.766312917E-1,-1.029395007E0,-6.535389081E-1,-2.341095924E0,2.639601733E0
8.865552916E-1,-1.274528998E0,-6.089152971E-1,-2.083140743E0,2.516878495E0
8.964782916E-1,-1.429018283E0,-2.830300882E-1,-2.052123018E0,2.516626346E0
9.064022916E-1,-1.244932877E0,-2.416879347E-1,-1.777444215E0,2.183478616E0
9.163252916E-1,-1.153936899E0,-1.476138362E-1,-1.754148908E0,2.104851207E0
9.262492916E-1,-1.071846085E0,1.013334167E-1,-1.459670264E0,1.813769492E0
9.361722916E-1,-1.027483406E0,3.106844947E-1,-1.184597359E0,1.598598733E0
9.460962916E-1,-9.627507815E-1,4.580925089E-1,-1.079545113E0,1.517285558E0
9.560192917E-1,-8.825057866E-1,5.471263075E-1,-9.754371929E-1,1.424654827E0
9.659432917E-1,-9.496929257E-1,6.417865893E-1,-9.404690892E-1,1.482662735E0
9.758672917E-1,-8.649502525E-1,7.401110289E-1,-7.608958340E-1,1.369257370E0
9.857902917E-1,-1.020279782E0,9.041438466E-1,-8.292895460E-1,1.595671671E0
9.957142917E-1,-1.283234917E0,1.107918727E0,-8.725472474E-1,1.906702509E0
1.005637292E0,-1.379438864E0,1.317907444E0,-6.438760918E-1,2.013531235E0
1.015561292E0,-1.332953792E0,1.452327331E0,-1.120121866E-1,1.974478974E0
1.025484292E0,-1.113808043E0,1.489467090E0,8.768741870E-1,2.056207409E0
1.035408292E0,-9.553618012E-1,1.454931681E0,2.120236648E0,2.743163468E0
1.045332292E0,-1.063295116E0,1.429303334E0,2.978976281E0,3.470994700E0
1.055255292E0,-1.100908208E0,1.125175615E0,3.099636499E0,3.476458755E0
1.065179292E0,-9.527760163E-1,1.133999648E0,2.979425347E0,3.327268059E0
1.075102292E0,-8.184546554E-1,1.546483875E0,2.822247512E0,3.320626661E0
1.085026292E0,-4.737481365E-1,1.786061257E0,2.582262579E0,3.175300323E0
1.094949292E0,-5.157624274E-2,1.894348183E0,2.402594599E0,3.060012411E0
1.104873292E0,1.907181944E-1,1.971085871E0,2.589589140E0,3.259988475E0
1.114796292E0,3.301393506E-1,1.826547963E0,2.922420257E0,3.462052803E0
1.124720292E0,4.072521383E-1,1.339488348E0,3.135612078E0,3.433969488E0
1.134643292E0,4.344459303E-1,7.598111755E-1,3.391903142E0,3.503007738E0
1.144567292E0,3.680326702E-1,3.761373496E-1,3.556215164E0,3.594940006E0
1.154491292E0,1.328586799E-1,1.084863156E-1,3.540403123E0,3.544555683E0
1.164414292E0,-2.255025494E-1,-1.288691247E-1,3.438864470E0,3.448658796E0
1.174338292E0,-5.341491432E-1,-3.630501115E-1,3.339995654E0,3.401865909E0
1.184261292E0,-6.260773136E-1,-5.980005920E-1,3.314791816E0,3.425992162E0
1.194185292E0,-5.464782898E-1,-8.224915731E-1,3.186803867E0,3.336292822E0
1.204108292E0,-2.449335779E-1,-1.098076109E0,2.984208954E0,3.189242336E0
1.214032292E0,1.645141898E-1,-1.332495663E0,2.676615590E0,2.994475017E0
1.223955292E0,5.188360164E-1,-1.515752956E0,2.256040571E0,2.767023110E0
1.233879292E0,7.454970454E-1,-1.642428790E0,1.787147085E0,2.539140185E0
1.243803292E0,7.886223073E-1,-1.733718444E0,1.063617298E0,2.181510152E0
1.253726292E0,7.593852058E-1,-1.790567706E0,2.472541916E-1,1.960595123E0
1.263650292E0,6.862096408E-1,-1.747997637E0,-5.440114957E-1,1.955077471E0
1.273573292E0,6.328404956E-1,-1.663064784E0,-1.279125786E0,2.191445720E0
1.283497292E0,6.153203371E-1,-1.556858882E0,-1.794653156E0,2.454222615E0
1.293420292E0,6.848523559E-1,-1.384317196E0,-2.086022835E0,2.595543896E0
1.303344292E0,8.451537730E-1,-1.227639883E0,-2.104949103E0,2.579185009E0
1.313267292E0,1.038515055E0,-1.101568359E0,-1.771487657E0,2.330264982E0
1.323191292E0,1.127792536E0,-1.000682546E0,-1.246479612E0,1.956270172E0
1.333114292E0,1.047515089E0,-9.910539365E-1,-7.063834119E-1,1.605756299E0
1.343038292E0,9.652911043E-1,-1.102450119E0,-1.864910960E-1,1.477146611E0
1.352962292E0,8.935814363E-1,-1.325048649E0,-4.010020494E-2,1.598702515E0
1.362885292E0,8.254505566E-1,-1.524293399E0,-5.916183561E-1,1.831625308E0
1.372809292E0,7.331573738E-1,-1.551669478E0,-1.454119502E0,2.249369118E0
1.382732292E0,5.467627203E-1,-1.322486984E0,-2.184118649E0,2.611186620E0
1.392656292E0,4.025316811E-1,-9.522331023E-1,-2.953371323E0,3.129086418E0
1.402579292E0,5.402926666E-1,-6.348362964E-1,-3.785054135E0,3.875766775E0
1.412503292E0,7.931290488E-1,-4.957199264E-1,-4.026066424E0,4.133279906E0
1.422426292E0,4.286737052E-1,-2.998165673E-1,-4.066640838E0,4.100148634E0
1.432350292E0,-3.436340300E-1,1.822094724E-1,-4.293561337E0,4.311142957E0
1.442273292E0,-9.217565373E-1,4.844596508E-1,-4.105447054E0,4.235449419E0
1.452197292E0,-1.069413789E0,4.087048790E-1,-3.701236637E0,3.874253241E0
1.462120292E0,-1.093190614E0,3.336851022E-1,-3.163676375E0,3.363816236E0
1.472044292E0,-1.007978702E0,4.505990097E-1,-2.341728008E0,2.588967090E0
1.481968292E0,-8.488638313E-1,6.262303644E-1,-1.523530630E0,1.853073084E0
1.491891292E0,-7.916577432E-1,7.520010495E-1,-1.112581297E0,1.558866480E0
1.501815292E0,-7.828176302E-1,9.185847151E-1,-9.023323792E-1,1.506919057E0
1.511738292E0,-7.063771261E-1,1.185315397E0,-6.061960495E-1,1.507121391E0
1.521662292E0,-4.499002674E-1,1.385911732E0,-1.879833055E-1,1.469183209E0
1.531585292E0,-1.234917328E-1,1.446476607E0,5.239040905E-1,1.543379499E0
1.541509292E0,1.148434085E-1,1.451362540E0,1.431600121E0,2.041842584E0
1.551432292E0,3.886994712E-1,1.246709115E0,2.199457650E0,2.557925888E0
1.561356292E0,6.455678375E-1,8.763602167E-1,2.845776123E0,3.046835540E0
1.571279292E0,9.342052594E-1,4.861644065E-1,3.438339390E0,3.596007933E0
1.581203292E0,1.167092915E0,1.347210181E-1,3.820727997E0,3.997276330E0
1.591126292E0,1.201372875E0,-1.038325167E-1,3.849295739E0,4.033752058E0
1.601050292E0,1.138636929E0,8.377188921E-2,3.500547917E0,3.682030351E0
1.610974292E0,9.284401240E-1,-1.454202533E-3,2.608001438E0,2.768334279E0
1.620897292E0,7.082321553E-1,-1.446308792E-1,1.419819151E0,1.593234853E0
1.630821292E0,6.803649102E-1,2.462215734E-1,4.313701487E-1,8.423785844E-1
1.640744292E0,8.232715917E-1,8.189329576E-1,-5.848852873E-2,1.162690075E0
1.650668292E0,1.093436636E0,1.053788128E0,-2.448498166E-1,1.538188717E0
1.660591292E0,1.391239715E0,8.065169799E-1,-2.947166258E-1,1.634893107E0
1.670515292E0,1.459421173E0,4.693103921E-1,-1.215554273E-1,1.537835533E0
1.680438292E0,1.347329025E0,1.868331581E-1,2.177754539E-1,1.377544293E0
1.690362292E0,1.060317860E0,-1.005522287E-1,6.631941229E-1,1.254675719E0
1.700281292E0,7.642616375E-1,-3.081886107E-1,1.316699409E0,1.553310466E0
1.710205292E0,4.885173261E-1,-4.735621950E-1,2.089478540E0,2.197460102E0
1.720128292E0,2.448914780E-1,-6.883918217E-1,2.700356455E0,2.797459583E0
1.730052292E0,7.485313118E-2,-1.002200484E0,3.075968724E0,3.235983992E0
1.739975292E0,5.639405608E-2,-1.308920859E0,3.152215247E0,3.413636634E0
1.749899292E0,1.967753251E-1,-1.481636792E0,2.952973713E0,3.309686066E0
1.759822292E0,4.071765630E-1,-1.426155193E0,2.544472609E0,2.945174400E0
1.769746292E0,7.836030574E-1,-1.187319823E0,2.014889703E0,2.466483859E0
1.779670292E0,1.296423604E0,-9.144425476E-1,1.508062406E0,2.188874495E0
1.789593292E0,1.798382218E0,-7.010136214E-1,1.122811586E0,2.233003483E0
1.799517292E0,2.124248715E0,-6.507760987E-1,8.205023503E-1,2.368367843E0
1.809440292E0,2.093236545E0,-6.998713678E-1,6.608067048E-1,2.303936776E0
1.819364292E0,1.742509148E0,-7.842493209E-1,5.942092574E-1,2.001117131E0
1.829287292E0,1.239092824E0,-8.795367166E-1,4.760270888E-1,1.592337167E0
1.839211292E0,7.627232350E-1,-9.519161832E-1,2.311433583E-1,1.241498452E0
1.849134292E0,4.171020654E-1,-9.644441351E-1,-1.741265738E-1,1.065104073E0
1.859058292E0,1.997104812E-1,-9.410134649E-1,-6.259730870E-1,1.147707682E0
1.868981292E0,5.786740825E-2,-8.457605678E-1,-1.265342730E0,1.523073143E0
1.878905292E0,-1.897969656E-2,-6.948398387E-1,-2.137846708E0,2.248010493E0
1.888828292E0,-9.628916994E-2,-6.914060614E-1,-2.766269778E0,2.852991839E0
1.898752292E0,-1.956776565E-1,-6.338717982E-1,-3.312311427E0,3.378089725E0
1.908675292E0,-2.259103196E-1,-4.557907525E-1,-3.754296026E0,3.788603877E0
1.918599292E0,7.395602211E-2,-2.568798780E-1,-3.911469183E0,3.920592804E0
1.928522292E0,-3.491438247E-1,-2.370104545E-1,-3.924465789E0,3.947088433E0
1.938446292E0,-1.146463573E-1,-1.621500143E-1,-4.282552784E0,4.287154623E0
1.948369292E0,-2.526573113E-1,9.056401491E-2,-4.178662380E0,4.187273199E0
1.958293292E0,-2.332707216E-1,1.565296707E-1,-4.220420855E0,4.229759918E0
1.968216292E0,-4.268920586E-1,2.089373875E-1,-4.171541056E0,4.198529081E0
1.978140292E0,-4.714226988E-1,3.856174403E-1,-4.084863685E0,4.130018341E0
1.988063292E0,-5.350648172E-1,6.402476022E-1,-3.848560744E0,3.937972975E0
1.997987292E0,-5.621933397E-1,8.603055167E-1,-3.589739590E0,3.733954641E0
2.007911292E0,-5.872021003E-1,9.842565483E-1,-3.220548733E0,3.418406266E0
2.017834292E0,-5.791444910E-1,1.033851754E0,-2.845493118E0,3.082383636E0
2.027758292E0,-6.114212675E-1,1.009746608E0,-2.332651375E0,2.614323357E0
2.037681292E0,-7.235715947E-1,1.041064587E0,-1.701752594E0,2.122105845E0
2.047605292E0,-8.040316209E-1,1.175851971E0,-1.170174617E0,1.843475885E0
2.057528292E0,-7.653680769E-1,1.204531102E0,-7.071148986E-1,1.592700521E0
2.067452292E0,-6.842888305E-1,1.235320786E0,-3.531279713E-1,1.455667548E0
2.077375292E0,-6.424863549E-1,1.309725435E0,-1.849100089E-1,1.470496904E0
2.087299292E0,-6.550597689E-1,1.404052134E0,-2.040812749E-1,1.562726739E0
2.097222292E0,-6.727679153E-1,1.508125848E0,-2.500959384E-1,1.670212028E0
2.107146292E0,-7.728802872E-1,1.642802427E0,-2.138771152E-1,1.828082923E0
2.117069292E0,-9.029201706E-1,1.769697239E0,-4.153218806E-2,1.987163324E0
2.126993292E0,-1.033981855E0,1.847506138E0,1.439087480E-1,2.122052576E0
2.136916292E0,-1.019921494E0,1.845015809E0,4.539298761E-1,2.156472935E0
2.146840292E0,-8.383695410E-1,1.754214105E0,9.463642520E-1,2.162345003E0
2.156763292E0,-6.311465572E-1,1.641411375E0,1.582072953E0,2.365487710E0
2.166687292E0,-3.952950208E-1,1.609518029E0,2.357493855E0,2.881767464E0
2.176610292E0,-1.702769132E-1,1.486943432E0,2.865929722E0,3.233194731E0
2.186534292E0,-1.345268905E-2,1.247061118E0,2.942972050E0,3.196314580E0
2.196457292E0,8.661948323E-2,1.013265462E0,2.776953810E0,2.957309977E0
2.206381292E0,4.088005906E-2,9.631492692E-1,2.600464377E0,2.773399118E0
2.216304292E0,2.389318496E-3,1.224465430E0,2.694781135E0,2.959926800E0
2.226228292E0,9.293930009E-2,1.462929210E0,2.839498553E0,3.195551849E0
2.236151292E0,2.792478168E-1,1.421320131E0,2.921119836E0,3.260532373E0
2.246075292E0,3.417658080E-1,1.211304517E0,3.133097776E0,3.376442532E0
2.255998292E0,2.384145172E-1,9.617357048E-1,3.415204296E0,3.556036759E0
2.265922292E0,3.512992546E-2,6.428382111E-1,3.755011141E0,3.809801011E0
2.275845292E0,-1.484410711E-1,2.367534694E-1,4.121040993E0,4.130504306E0
2.285769292E0,-1.894658670E-1,-1.895050433E-1,4.512652999E0,4.520602456E0
2.295692292E0,-1.090824392E-1,-6.685472488E-1,4.776526147E0,4.824319272E0
2.305616292E0,-1.094249308E-1,-1.159714825E0,4.681960298E0,4.824693205E0
2.315539292E0,-2.168252814E-1,-1.520342436E0,4.350519649E0,4.613618487E0
2.325463292E0,-3.975236870E-1,-1.715369589E0,3.768235204E0,4.159340628E0
2.335386292E0,-5.892266987E-1,-1.739808320E0,3.087730399E0,3.592798367E0
2.345310292E0,-6.732057256E-1,-1.577989550E0,2.508759570E0,3.039264969E0
2.355233292E0,-5.811176339E-1,-1.345722941E0,1.949492104E0,2.439095612E0
2.365157292E0,-3.964252876E-1,-1.175289177E0,1.397183409E0,1.868309165E0
2.375080292E0,-2.129496007E-1,-1.093519082E0,1.016513298E0,1.508121613E0
2.385004292E0,1.185201377E-2,-1.123839526E0,7.207810110E-1,1.335170782E0
2.394927292E0,2.191912110E-1,-1.236889594E0,3.917336279E-1,1.315825174E0
2.404851292E0,3.828068300E-1,-1.378912030E0,4.818222642E-2,1.431873242E0
2.414774292E0,4.878869963E-1,-1.487056283E0,-2.735713398E-1,1.588776696E0
2.424698292E0,5.620520563E-1,-1.507150825E0,-6.111112189E-1,1.720715852E0
2.434621292E0,5.765857494E-1,-1.461105463E0,-1.019165595E0,1.872425916E0
2.444545292E0,5.507675149E-1,-1.437925931E0,-1.469667833E0,2.128590937E0
2.454468292E0,5.475120775E-1,-1.446710495E0,-1.899029464E0,2.449296559E0
2.464392292E0,5.010489325E-1,-1.477795463E0,-2.335595448E0,2.808902911E0
2.474315292E0,4.536940871E-1,-1.502664841E0,-2.805087104E0,3.214397861E0
2.484239292E0,3.775849740E-1,-1.462747069E0,-3.138592404E0,3.483240112E0
2.494162292E0,2.793659306E-1,-1.388628933E0,-3.303773323E0,3.594614556E0
2.504086292E0,1.349844351E-1,-1.312131272E0,-3.446747686E0,3.690525556E0
2.514009292E0,-5.659973189E-2,-1.269700660E0,-3.563244102E0,3.783127255E0
2.523933292E0,-2.091638209E-1,-1.258374310E0,-3.586806627E0,3.806893378E0
2.533856292E0,-3.501515923E-1,-1.269617629E0,-3.574226927E0,3.809151243E0
2.543780292E0,-3.823207802E-1,-1.232990670E0,-3.546259110E0,3.773908961E0
2.553703292E0,-3.528530060E-1,-1.164794594E0,-3.522022986E0,3.726378618E0
2.563627292E0,-3.506692171E-1,-1.025632323E0,-3.421742068E0,3.589318785E0
2.573550292E0,-4.184659284E-1,-8.051428843E-1,-3.206910687E0,3.332813369E0
2.583474292E0,-4.605645655E-1,-5.696854502E-1,-3.067927049E0,3.154177802E0
2.593397292E0,-4.877756068E-1,-3.448831049E-1,-2.991087618E0,3.050159756E0
2.603321292E0,-5.801766707E-1,-8.569211483E-2,-2.769424936E0,2.830841320E0
2.613244292E0,-6.099255498E-1,1.837127915E-1,-2.421697453E0,2.504072307E0
2.623168292E0,-6.540749516E-1,4.613210490E-1,-2.001125357E0,2.155257258E0
2.633091292E0,-6.808404350E-1,6.996246153E-1,-1.584389035E0,1.860996216E0
2.643015292E0,-6.353746788E-1,8.159649110E-1,-1.336409789E0,1.689819766E0
2.652938292E0,-5.744491768E-1,9.630033812E-1,-1.119548255E0,1.584536419E0
2.662862292E0,-5.128430954E-1,1.185584662E0,-7.712418973E-1,1.504471035E0
2.672785292E0,-4.643491758E-1,1.464451825E0,-2.463753551E-1,1.555937055E0
2.682709292E0,-3.167784994E-1,1.736783555E0,4.921303207E-1,1.832746023E0
2.692632292E0,-4.700298920E-2,1.933305549E0,1.281606760E0,2.319999033E0
2.702557208E0,2.967018286E-1,1.865735710E0,2.142964776E0,2.856798863E0
2.712480208E0,6.228651457E-1,1.605514441E0,2.913708490E0,3.384573056E0
2.722404208E0,7.329655851E-1,1.291454641E0,3.443358055E0,3.749907776E0
2.732327208E0,5.825140952E-1,8.792224288E-1,3.561963562E0,3.714826936E0
2.742251208E0,3.162931439E-1,4.738513398E-1,3.356711674E0,3.404715805E0
2.752174208E0,1.163055047E-2,3.486326319E-1,3.134323937E0,3.153675082E0
2.762098208E0,-2.302329469E-1,4.721834216E-1,2.873564431E0,2.921187589E0
2.772021208E0,-3.168271409E-1,6.541002408E-1,2.293422405E0,2.405828940E0
2.781945208E0,-1.778433564E-1,7.200568333E-1,1.499444194E0,1.672854744E0
2.791868208E0,1.548522507E-1,7.621564937E-1,8.271605748E-1,1.135366177E0
2.801792208E0,5.444035515E-1,1.066895539E0,5.567595953E-1,1.320841613E0
2.811715208E0,9.103541744E-1,1.594123480E0,7.150905007E-1,1.970108833E0
2.821639208E0,1.407341777E0,1.886965196E0,1.118615624E0,2.606251991E0
2.831562208E0,1.889775806E0,1.535452810E0,1.629140700E0,2.929670178E0
2.841486208E0,2.002810086E0,7.639246917E-1,2.186660433E0,3.062076587E0
2.851409208E0,1.755137672E0,1.030639002E-1,2.665764912E0,3.193341977E0
2.861333208E0,1.387527025E0,-3.760382393E-1,3.223477018E0,3.529509894E0
2.871256208E0,9.783529070E-1,-6.365992320E-1,3.613321411E0,3.797173240E0
2.881180208E0,6.593932866E-1,-8.403387371E-1,3.610554509E0,3.765245352E0
2.891103208E0,3.797737330E-1,-1.148663588E0,3.309424657E0,3.523627064E0
2.901027208E0,1.793777389E-1,-1.417733741E0,2.734849765E0,3.085700661E0
2.910950208E0,-3.469138429E-2,-1.484891059E0,1.996254042E0,2.488199178E0
2.920874208E0,-4.155404203E-2,-1.383889180E0,1.240603745E0,1.859024920E0
2.930797208E0,2.277600863E-1,-1.280537597E0,5.611315584E-1,1.416516791E0
2.940721208E0,6.954586934E-1,-1.141596643E0,1.073542947E-1,1.341055791E0
2.950644208E0,1.217304052E0,-9.828274888E-1,-1.500535870E-1,1.571717248E0
2.960567208E0,1.616444495E0,-8.145960778E-1,-3.089890945E-1,1.836282613E0
2.970491208E0,1.890822458E0,-8.062930316E-1,-3.649972343E-1,2.087711906E0
2.980414208E0,1.823214173E0,-9.645865148E-1,-4.183904994E-1,2.104658565E0
2.990338208E0,1.410309239E0,-1.127958890E0,-6.613703763E-1,1.923193745E0
3.000261208E0,9.089255534E-1,-1.228964570E0,-1.184289796E0,1.933660233E0
3.010185208E0,3.774770198E-1,-1.235703486E0,-1.804418006E0,2.219318892E0
3.020108208E0,-1.604977374E-1,-1.134185005E0,-2.386127670E0,2.646835924E0
3.030032208E0,-5.076071696E-1,-1.002888993E0,-2.917431412E0,3.126476838E0
3.039955208E0,-6.475866618E-1,-8.804708093E-1,-3.346976060E0,3.520915517E0
3.049879208E0,-6.384999425E-1,-6.827682620E-1,-3.614010213E0,3.732951178E0
3.059802208E0,-1.091499673E0,-7.921837002E-1,-3.713201795E0,3.950543522E0
3.069726208E0,-1.058518745E0,-7.635490081E-1,-3.903079598E0,4.115519332E0
3.079649208E0,-1.228637418E0,-5.131987157E-1,-3.791117113E0,4.018145317E0
3.089573208E0,-1.146644910E0,-5.332140273E-1,-3.732132740E0,3.940549015E0
3.099496208E0,-1.056908714E0,-5.662583971E-1,-3.662483046E0,3.853762663E0
3.109420208E0,-1.004884940E0,-4.699781442E-1,-3.570374197E0,3.738749136E0
3.119343208E0,-1.056549476E0,-3.087765482E-1,-3.435195342E0,3.607243655E0
3.129267208E0,-1.129631193E0,-1.008217853E-1,-3.296025762E0,3.485687520E0
3.139190208E0,-1.149046873E0,7.640907526E-2,-3.220753970E0,3.420439036E0
3.149114208E0,-1.157368192E0,2.203546607E-1,-3.238011442E0,3.445689395E0
3.159037208E0,-1.122555478E0,3.957664526E-1,-3.201039498E0,3.415174337E0
3.168961208E0,-1.061768628E0,6.214490962E-1,-3.017799454E0,3.258936198E0
3.178884208E0,-1.055105652E0,7.850945359E-1,-2.733839366E0,3.033726923E0
3.188808208E0,-1.134244354E0,8.576999974E-1,-2.408947014E0,2.797353259E0
3.198731208E0,-1.278231309E0,8.783643499E-1,-2.018301553E0,2.545376273E0
3.208655208E0,-1.380878156E0,8.869261354E-1,-1.592424864E0,2.286761771E0
3.218578208E0,-1.448700010E0,9.626779836E-1,-1.352824677E0,2.203546058E0
3.228501208E0,-1.465661760E0,1.070738914E0,-1.154110562E0,2.150957323E0
3.238425208E0,-1.402473824E0,1.182988790E0,-9.141221201E-1,2.049881595E0
3.248348208E0,-1.364981039E0,1.360077856E0,-6.895516169E-1,2.046574319E0
3.258272208E0,-1.340767719E0,1.517829302E0,-5.096327913E-1,2.088346103E0
3.268195208E0,-1.305336661E0,1.604889373E0,-2.753360295E-1,2.086955589E0
3.278119208E0,-1.263734892E0,1.667125675E0,1.366008979E-1,2.096424026E0
3.288042208E0,-1.142361751E0,1.689550624E0,6.615516400E-1,2.144113396E0
3.297966208E0,-1.005548015E0,1.660838164E0,1.312540285E0,2.343559732E0
3.307889208E0,-8.872066556E-1,1.576818645E0,1.992362720E0,2.691282575E0
3.317813208E0,-7.214223044E-1,1.419981996E0,2.663228390E0,3.103157177E0
3.327736208E0,-5.158456041E-1,1.251849402E0,3.246092294E0,3.517149243E0
3.337660208E0,-3.325679916E-1,1.143837296E0,3.627792100E0,3.818355766E0
3.347583208E0,-1.596966688E-1,1.111506287E0,3.758984324E0,3.923125335E0
3.357507208E0,-1.889293849E-2,1.060729651E0,3.542601092E0,3.698043649E0
3.367430208E0,-8.407272846E-3,1.095402178E0,3.225272698E0,3.406223802E0
3.377354208E0,-3.114432623E-2,1.325068529E0,2.962794111E0,3.245755000E0
3.387277208E0,1.260683084E-1,1.694146243E0,2.774081658E0,3.252930026E0
3.397200208E0,4.890853831E-1,1.920042602E0,2.836840993E0,3.460265153E0
3.407124208E0,8.408154313E-1,1.814426393E0,3.079483486E0,3.671829553E0
3.417047208E0,9.095077899E-1,1.414492045E0,3.175478979E0,3.593279688E0
3.426971208E0,5.784822938E-1,9.620958933E-1,3.066599731E0,3.265624623E0
3.436894208E0,9.834770048E-2,5.610388801E-1,2.839942356E0,2.896499522E0
3.446818208E0,-2.272434117E-1,1.938495246E-1,2.671301056E0,2.687948388E0
3.456741208E0,-4.329826646E-1,-2.223813057E-1,2.569387595E0,2.615087006E0
3.466665208E0,-5.403200023E-1,-6.389539057E-1,2.609257420E0,2.740151835E0
3.476588208E0,-4.990063539E-1,-9.622891438E-1,2.662978714E0,2.875145799E0
3.486512208E0,-3.938004725E-1,-1.253073809E0,2.615038562E0,2.926379925E0
3.496435208E0,-3.282619558E-1,-1.493737020E0,2.444163625E0,2.883217304E0
3.506359208E0,-3.203840022E-1,-1.571520775E0,2.127071459E0,2.663973807E0
3.516282208E0,-2.598417851E-1,-1.513171410E0,1.677055709E0,2.273702118E0
3.526206208E0,-7.235052288E-2,-1.411373140E0,1.366965584E0,1.966164704E0
3.536129208E0,2.815117125E-1,-1.279595025E0,1.315189074E0,1.856430600E0
3.546052208E0,7.856240013E-1,-1.152615136E0,1.289213403E0,1.899420417E0
3.555976208E0,1.320999890E0,-1.202314423E0,1.248673487E0,2.179400413E0
3.565899208E0,1.637190854E0,-1.335725372E0,1.198031337E0,2.428957646E0
3.575823208E0,1.673031363E0,-1.423181592E0,9.874362642E-1,2.408217216E0
3.585746208E0,1.452517658E0,-1.469972181E0,6.044763833E-1,2.153141300E0
3.595670208E0,1.112699996E0,-1.512770876E0,1.263203233E-1,1.882162009E0
3.605593208E0,7.401743250E-1,-1.529931577E0,-3.717484295E-1,1.739754453E0
3.615517208E0,4.465787566E-1,-1.578134561E0,-8.637337393E-1,1.853638921E0
3.625440208E0,2.266548894E-1,-1.602894888E0,-1.361970307E0,2.115563182E0
3.635364208E0,1.160686925E-2,-1.556032963E0,-1.811890163E0,2.388371676E0
3.645287208E0,-1.713316047E-1,-1.491342000E0,-2.273052460E0,2.724008621E0
3.655211208E0,-3.423347421E-1,-1.441310884E0,-2.669394863E0,3.052906660E0
3.665134208E0,-5.275948530E-1,-1.364990979E0,-2.843458872E0,3.197939189E0
3.675057208E0,-6.298429205E-1,-1.277640009E0,-2.889902136E0,3.221893924E0
3.684981208E0,-6.216930713E-1,-1.279246824E0,-2.982086415E0,3.303908912E0
3.694903792E0,-5.577862202E-1,-1.275340884E0,-3.052361761E0,3.354777512E0
3.704827792E0,-3.484110224E-1,-1.186838597E0,-3.083090048E0,3.321960316E0
3.714750792E0,-1.365539740E-1,-1.000350717E0,-3.098963485E0,3.259282624E0
3.724674792E0,4.918853223E-2,-7.666132414E-1,-3.170549192E0,3.262284100E0
3.734597792E0,2.063026321E-1,-5.266709930E-1,-3.280841128E0,3.329243400E0
3.744521792E0,2.784610739E-1,-3.183449319E-1,-3.301311645E0,3.328294254E0
3.754444792E0,2.129693350E-1,-1.334855014E-1,-3.243355213E0,3.253079672E0
3.764368792E0,1.266213088E-1,4.388978541E-2,-3.092569554E0,3.095471809E0
3.774291792E0,-3.667066678E-2,1.899514782E-1,-2.827414112E0,2.834024852E0
3.784215792E0,-3.283534648E-1,3.356567833E-1,-2.478554024E0,2.522639792E0
3.794138792E0,-5.953472717E-1,4.300647578E-1,-2.044125196E0,2.172059366E0
3.804061792E0,-7.392086573E-1,4.933061957E-1,-1.594455602E0,1.825395603E0
3.813985792E0,-7.747091500E-1,6.326856905E-1,-1.127341424E0,1.507104554E0
3.823908792E0,-6.662234192E-1,7.867121682E-1,-6.739529997E-1,1.231658364E0
3.833832792E0,-5.389088133E-1,9.087634394E-1,-2.704658836E-1,1.090607854E0
3.843755792E0,-3.680954181E-1,1.045149160E0,9.563647449E-2,1.112194829E0
3.853679792E0,-2.352897651E-1,1.167691597E0,4.215263611E-1,1.263546363E0
3.863602792E0,-1.870598839E-1,1.233817466E0,7.484336632E-1,1.455146003E0
3.873526792E0,-1.524396895E-1,1.274531629E0,1.103525714E0,1.692760389E0
3.883449792E0,-7.344205186E-2,1.231187681E0,1.468903602E0,1.918044482E0
3.893372792E0,7.432541996E-2,1.089675415E0,1.906715629E0,2.197380546E0
3.903296792E0,1.707519995E-1,9.786145699E-1,2.500866998E0,2.690943787E0
3.913219792E0,2.263559505E-1,8.666316193E-1,3.182799109E0,3.306432752E0
3.923143792E0,2.779514891E-1,6.480545121E-1,3.759442161E0,3.825001574E0
3.933066792E0,2.863477253E-1,3.046913910E-1,4.014811118E0,4.036525756E0
3.942990792E0,2.315104904E-1,2.246345302E-1,3.704859572E0,3.718876474E0
3.952913792E0,1.451859992E-1,2.518731996E-1,2.908850039E0,2.923341860E0
3.962837792E0,1.347824138E-1,2.969771594E-1,1.868978283E0,1.897219428E0
3.972760792E0,3.341131184E-1,6.060764739E-1,9.379004073E-1,1.165597461E0
3.982684792E0,6.785606787E-1,1.174056291E0,1.826336879E-1,1.368286459E0
3.992607792E0,1.040372131E0,1.469876871E0,-3.952513129E-1,1.843674534E0
4.002530792E0,1.236481896E0,1.401648636E0,-6.585105032E-1,1.981701910E0
4.012454792E0,1.288048491E0,1.235108239E0,-4.979751974E-1,1.852711682E0
4.022377792E0,1.182656815E0,1.024883587E0,8.948111057E-2,1.567504507E0
4.032301792E0,1.007710315E0,6.637490237E-1,8.819957632E-1,1.494643560E0
4.042224792E0,9.425189768E-1,2.910434049E-1,1.657875087E0,1.929144393E0
4.052148792E0,8.855883656E-1,5.612859249E-2,2.365854789E0,2.526793631E0
4.062071792E0,8.511761127E-1,-1.366634631E-1,2.836438705E0,2.964550928E0
4.071995792E0,8.808064395E-1,-3.222038019E-1,2.832607609E0,2.983839999E0
4.081918792E0,8.846489373E-1,-3.950644943E-1,2.398265905E0,2.586572839E0
4.091842792E0,8.484520411E-1,-4.551545754E-1,1.924371296E0,2.151799582E0
4.101765792E0,8.438514519E-1,-4.049497971E-1,1.392619658E0,1.677932991E0
4.111688792E0,9.562694353E-1,-2.198061919E-1,6.880582380E-1,1.198411504E0
4.121612792E0,1.177804795E0,-1.212934721E-1,-8.887124598E-2,1.187364451E0
4.131535792E0,1.349072080E0,-2.149857473E-1,-6.377517182E-1,1.507627807E0
4.141459792E0,1.439859020E0,-3.741647914E-1,-9.776094335E-1,1.780144234E0
4.151382792E0,1.404751461E0,-5.646615225E-1,-1.162666792E0,1.908916806E0
4.161306792E0,1.159994907E0,-7.527649882E-1,-1.108705178E0,1.772419387E0
4.171229792E0,7.805652827E-1,-8.906499347E-1,-9.065733647E-1,1.491447194E0
4.181153792E0,3.980573916E-1,-9.480628681E-1,-6.123958522E-1,1.196788022E0
4.191076792E0,1.893872219E-1,-9.641485584E-1,-3.736587149E-1,1.051223477E0
4.200999792E0,6.046781123E-2,-9.658805037E-1,-4.053190488E-1,1.049221156E0
4.210923792E0,-6.150232986E-2,-1.006896675E0,-8.274131745E-1,1.304697671E0
4.220846792E0,-1.946916698E-1,-9.574014562E-1,-1.269584300E0,1.601988355E0
4.230770792E0,-4.280560199E-1,-7.701013979E-1,-1.620028984E0,1.844120936E0
4.240693792E0,-7.135362377E-1,-6.207363206E-1,-2.071527003E0,2.277206988E0
4.250617792E0,-9.647117914E-1,-5.260356930E-1,-2.524744688E0,2.753491989E0
4.260540792E0,-1.142329007E0,-4.651357725E-1,-2.815582856E0,3.073885760E0
4.270464792E0,-1.313846553E0,-4.016379341E-1,-2.978388636E0,3.279985466E0
4.280387792E0,-1.433179746E0,-3.550587219E-1,-3.093008680E0,3.427356646E0
4.290310792E0,-1.480461209E0,-3.247002706E-1,-3.214989200E0,3.554342585E0
4.300234792E0,-1.429420863E0,-2.761946931E-1,-3.325680501E0,3.630382667E0
4.310157792E0,-1.275589098E0,-1.857733503E-1,-3.365184290E0,3.603623813E0
4.320081792E0,-1.120619172E0,-6.038127244E-2,-3.323590121E0,3.507945912E0
4.330004792E0,-9.523382791E-1,-5.196508259E-2,-3.211834627E0,3.350452244E0
4.339928792E0,-7.003873115E-1,1.608335137E-2,-3.018746118E0,3.098972279E0
4.349851792E0,-5.475238451E-1,2.166223830E-1,-2.659097916E0,2.723510482E0
4.359775792E0,-4.830992230E-1,2.777637935E-1,-2.323601055E0,2.389489369E0
4.369698792E0,-4.999282406E-1,3.063867912E-1,-2.040854849E0,2.123414614E0
4.379621792E0,-5.863732575E-1,3.708108285E-1,-1.909679582E0,2.031799787E0
4.389545792E0,-6.242195801E-1,4.697822624E-1,-1.792352276E0,1.955216648E0
4.399468792E0,-5.666356156E-1,5.901767251E-1,-1.619176460E0,1.814143571E0
4.409392792E0,-4.487274621E-1,7.836189911E-1,-1.278163335E0,1.564965357E0
4.419315792E0,-3.109284697E-1,9.894465369E-1,-8.300602090E-1,1.328412930E0
4.429239792E0,-1.398226406E-1,1.035032600E0,-4.015101725E-1,1.118951863E0
4.439162792E0,1.451081581E-2,9.127486092E-1,-9.501608491E-2,9.177955348E-1
4.449085792E0,7.057823181E-2,9.142536825E-1,7.965135634E-2,9.204267604E-1
4.459009792E0,1.141361877E-2,1.001416080E0,1.777436614E-1,1.017131872E0
4.468932792E0,-1.533385527E-1,1.085201710E0,2.557256377E-1,1.125420395E0
4.478856792E0,-2.794358779E-1,1.207078442E0,2.540492409E-1,1.264778159E0
4.488779792E0,-3.044693430E-1,1.288346261E0,3.510966486E-1,1.369600863E0
4.498703792E0,-1.828702077E-1,1.281685697E0,7.377969933E-1,1.490135612E0
4.508626792E0,4.849476010E-2,1.297367345E0,1.377218676E0,1.892681973E0
4.518550792E0,1.864715078E-1,1.447895434E0,2.074157665E0,2.536395638E0
4.528473792E0,6.779101029E-2,1.656625537E0,2.562122430E0,3.051798672E0
4.538396792E0,-2.539080307E-1,1.746745749E0,2.449554173E0,3.019255810E0
4.548320792E0,-6.199779367E-1,1.696980681E0,1.984202346E0,2.683500516E0
4.558243792E0,-6.694598530E-1,1.792046175E0,1.753573542E0,2.595115827E0
4.568167792E0,-2.914171882E-1,2.042714848E0,1.815608407E0,2.748461718E0
4.578090792E0,4.603170821E-1,2.091963314E0,2.159705354E0,3.041797090E0
4.588014792E0,1.132535213E0,1.727005256E0,2.605070229E0,3.324390780E0
4.597937792E0,1.289923547E0,1.159670094E0,2.900345848E0,3.379459058E0
4.607860792E0,9.911252725E-1,5.305775177E-1,2.950386320E0,3.157312345E0
4.617784792E0,6.028878410E-1,-8.887884736E-2,2.825356477E0,2.890330850E0
4.627707792E0,2.745212200E-1,-6.004704559E-1,2.541726757E0,2.626081030E0
4.637631792E0,1.824170485E-2,-8.360854724E-1,2.305341370E0,2.452339803E0
4.647554792E0,-1.918589862E-1,-8.456474242E-1,2.205727034E0,2.370055102E0
4.657478792E0,-3.774484415E-1,-8.613395968E-1,2.133064270E0,2.331166319E0
4.667401792E0,-6.219309068E-1,-9.489276713E-1,1.980019248E0,2.282046888E0
4.677324792E0,-8.515631984E-1,-1.111129434E0,1.707060696E0,2.207674052E0
4.687248792E0,-9.221138021E-1,-1.236569166E0,1.408144015E0,2.088604016E0
4.697171458E0,-8.431703974E-1,-1.315989265E0,1.143957456E0,1.936853822E0
4.707095458E0,-5.651496188E-1,-1.307007065E0,1.147938241E0,1.829049962E0
4.717018458E0,6.349213734E-2,-1.213637556E0,1.621036459E0,2.026007545E0
4.726942458E0,8.242645951E-1,-1.209424929E0,2.196157481E0,2.639171928E0
4.736865458E0,1.399402135E0,-1.340013428E0,2.489884173E0,3.154914503E0
4.746788458E0,1.648963054E0,-1.461907701E0,2.434108168E0,3.283464002E0
4.756712458E0,1.544925300E0,-1.514614211E0,1.888304501E0,2.871679696E0
4.766635458E0,1.182433012E0,-1.496676123E0,1.041334144E0,2.173146117E0
4.776559458E0,7.594850470E-1,-1.422510332E0,1.877540946E-1,1.623454582E0
4.786482458E0,3.881701885E-1,-1.353116746E0,-6.302544183E-1,1.542342911E0
4.796406458E0,1.538852674E-1,-1.282097634E0,-1.386827990E0,1.894926619E0
4.806329458E0,1.331527948E-2,-1.192171550E0,-1.948038486E0,2.283922995E0
4.816252458E0,-6.586332947E-2,-1.056264717E0,-2.298413588E0,2.530363245E0
4.826176458E0,-3.108189806E-2,-9.368365064E-1,-2.463970483E0,2.636243400E0
4.836099458E0,2.251148790E-2,-8.580420595E-1,-2.524449404E0,2.666381018E0
4.846023458E0,5.762109429E-2,-8.912975138E-1,-2.654172222E0,2.800421688E0
4.855946458E0,4.949185655E-2,-9.334109151E-1,-2.772333341E0,2.925668732E0
4.865869458E0,4.229320318E-2,-9.321455777E-1,-2.918628922E0,3.064160387E0
4.875793458E0,5.953251254E-2,-8.753033325E-1,-3.152925684E0,3.272711477E0
4.885716458E0,9.821553513E-2,-7.280014452E-1,-3.355552756E0,3.435020625E0
4.895640458E0,1.728191364E-1,-4.658605349E-1,-3.514225724E0,3.549179473E0
4.905563458E0,2.694020924E-1,-2.098092073E-1,-3.620055065E0,3.636123769E0
4.915487458E0,3.444034870E-1,-5.885164082E-2,-3.631179977E0,3.647950836E0
4.925410458E0,3.678664631E-1,5.359499395E-2,-3.545109547E0,3.564547638E0
4.935333458E0,2.577366413E-1,1.802793065E-1,-3.323981885E0,3.338829791E0
4.945257458E0,8.293237522E-2,3.201631236E-1,-2.914702517E0,2.933406376E0
4.955180458E0,-1.340447876E-1,4.183694494E-1,-2.350498247E0,2.391201164E0
4.965104458E0,-3.202949783E-1,4.342209587E-1,-1.790791655E0,1.870313199E0
4.975027458E0,-4.054080726E-1,4.186103547E-1,-1.354866525E0,1.474874108E0
4.984950458E0,-4.821297546E-1,4.882840222E-1,-1.049330796E0,1.253780486E0
4.994874458E0,-5.762079462E-1,6.590855768E-1,-8.588951683E-1,1.226421748E0
5.004797458E0,-6.261343970E-1,9.066055244E-1,-5.651947886E-1,1.238314584E0
5.014721458E0,-5.078901748E-1,1.107865518E0,1.243176520E-2,1.218799813E0
5.024644458E0,-8.924298272E-2,1.112490081E0,7.933888113E-1,1.369329871E0
5.034568458E0,4.742440534E-1,9.355454412E-1,1.666102704E0,1.968768883E0
5.044491458E0,1.031352362E0,6.286294770E-1,2.568030456E0,2.837894138E0
5.054414458E0,1.390923088E0,2.422989687E-1,3.304835177E0,3.593787887E0
5.064338458E0,1.420479886E0,4.849329829E-2,3.938037177E0,4.186675472E0
5.074261458E0,1.225483649E0,-2.431479844E-1,4.098560203E0,4.284755169E0
5.084185458E0,9.615924481E-1,-5.624080056E-1,3.706983865E0,3.870748271E0
5.094108458E0,6.254598476E-1,-5.806144810E-1,2.984117153E0,3.103750695E0
5.104031458E0,3.869028776E-1,-3.054772568E-1,2.097123190E0,2.154283144E0
5.113955458E0,3.345700052E-1,8.678145111E-3,1.074153981E0,1.125086296E0
5.123878458E0,5.341285318E-1,3.545707718E-1,1.965927458E-1,6.705687350E-1
5.133802458E0,9.312201096E-1,1.051042861E0,-1.985071242E-1,1.418191477E0
5.143725458E0,1.488183627E0,1.838161118E0,1.010398865E-2,2.365085388E0
5.153649458E0,2.192223036E0,2.085427881E0,5.984408873E-1,3.084312368E0
5.163572458E0,2.637263244E0,1.726600044E0,1.246066214E0,3.389540697E0
5.173495458E0,2.613019518E0,1.102462983E0,1.981215003E0,3.459553225E0
5.183419458E0,2.230480929E0,5.000518361E-1,2.790148053E0,3.606940971E0
5.193342458E0,1.682074959E0,9.783912063E-2,3.582062781E0,3.958550546E0
5.203266458E0,1.082964127E0,-1.969158044E-1,4.268205471E0,4.407852660E0
5.213189458E0,6.006115931E-1,-4.953261164E-1,4.580544435E0,4.646231760E0
5.223112458E0,3.299933164E-1,-8.111865664E-1,4.444086794E0,4.529550383E0
5.233036458E0,2.795991614E-1,-1.045220203E0,3.886370010E0,4.034170648E0
5.242959458E0,3.729772219E-1,-1.177491530E0,2.978730698E0,3.224660429E0
5.252883458E0,5.966801445E-1,-1.119026975E0,1.869492838E0,2.259037857E0
5.262806458E0,9.920311524E-1,-9.434918073E-1,7.709583074E-1,1.571203141E0
5.272729458E0,1.364836174E0,-7.015521500E-1,-2.069048953E-1,1.548471129E0
5.282653458E0,1.550650601E0,-3.575695163E-1,-1.132570589E0,1.953225379E0
5.292576458E0,1.577783143E0,-8.382743776E-2,-1.838345305E0,2.424033859E0
5.302500458E0,1.455166008E0,-3.166705817E-2,-2.141329309E0,2.589170161E0
5.312423458E0,1.174178790E0,-1.897164202E-1,-2.024008436E0,2.347615450E0
5.322346458E0,8.327056356E-1,-4.222172096E-1,-1.623082985E0,1.872448777E0
5.332270458E0,4.412225609E-1,-5.935742497E-1,-1.273973220E0,1.473097248E0
5.342193458E0,-8.346900344E-4,-6.904140812E-1,-1.128224353E0,1.322710282E0
5.352117458E0,-4.109183425E-1,-7.272641113E-1,-1.212143592E0,1.472093428E0
5.362040458E0,-7.293667701E-1,-7.198746926E-1,-1.462922485E0,1.786151633E0
5.371964458E0,-9.440838379E-1,-6.573872530E-1,-1.846039656E0,2.175158547E0
5.381887458E0,-1.015533086E0,-5.596837878E-1,-2.111312043E0,2.408773948E0
5.391810458E0,-9.812910598E-1,-4.770336869E-1,-2.269016127E0,2.517722675E0
5.401734458E0,-8.667412546E-1,-4.584681925E-1,-2.587815680E0,2.767349540E0
5.411657458E0,-7.525735650E-1,-4.622799924E-1,-2.958320991E0,3.087350458E0
5.421581458E0,-7.467580705E-1,-4.336222038E-1,-3.250436776E0,3.363185256E0
5.431504458E0,-8.320487740E-1,-3.782712910E-1,-3.516861649E0,3.633690987E0
5.441427458E0,-9.127064361E-1,-3.771813700E-1,-3.779819707E0,3.906703962E0
5.451351458E0,-9.272071655E-1,-3.585518485E-1,-3.975945845E0,4.098343314E0
5.461274458E0,-9.084865006E-1,-2.771720552E-1,-4.051773123E0,4.161614772E0
5.471197458E0,-1.003318398E0,-2.043356287E-1,-4.044612622E0,4.172204708E0
5.481121458E0,-1.126984524E0,-1.100925457E-1,-4.008538810E0,4.165404888E0
5.491044458E0,-1.206505415E0,-2.306346506E-2,-3.855673297E0,4.040099480E0
5.500968458E0,-1.191888837E0,3.465059996E-2,-3.555517007E0,3.750133444E0
5.510891458E0,-1.126093701E0,1.629089829E-1,-3.048723038E0,3.254126384E0
5.520814458E0,-1.037726777E0,3.022735673E-1,-2.384171777E0,2.617732079E0
5.530738458E0,-9.892916588E-1,3.681649634E-1,-1.661759977E0,1.968677132E0
5.540661458E0,-9.682938688E-1,3.612231490E-1,-1.015724509E0,1.449058818E0
5.550585458E0,-9.715963762E-1,3.250756618E-1,-5.902319813E-1,1.182390585E0
5.560508458E0,-1.036849403E0,4.397690892E-1,-4.386914474E-1,1.208678502E0
5.570431458E0,-1.109659663E0,6.768055639E-1,-3.402091330E-1,1.343559672E0
5.580355458E0,-1.148499500E0,8.656475329E-1,-2.136215919E-1,1.453970749E0
5.590278458E0,-1.151942926E0,1.085351106E0,-2.039333403E-1,1.595790818E0
5.600202458E0,-1.105877245E0,1.321242988E0,-1.233546156E-1,1.727386430E0
5.610125458E0,-9.921081895E-1,1.487806481E0,1.947467798E-1,1.798825476E0
5.620048458E0,-8.975315228E-1,1.593317733E0,7.146782720E-1,1.963412658E0
5.629972458E0,-7.823310687E-1,1.624657055E0,1.495093866E0,2.342404345E0
5.639895458E0,-5.448306906E-1,1.530539395E0,2.367713619E0,2.871490746E0
5.649819458E0,-3.493482580E-1,1.338573843E0,3.190139118E0,3.477184455E0
5.659742458E0,-3.062267967E-1,1.204660910E0,3.973805180E0,4.163665496E0
5.669665458E0,-4.704625860E-1,1.088841602E0,4.314431804E0,4.474509232E0
5.679589458E0,-7.281511340E-1,9.773129797E-1,3.995023556E0,4.176787994E0
5.689512458E0,-9.729578273E-1,9.680597609E-1,3.449191822E0,3.712237985E0
5.699441667E0,-1.007021221E0,1.244098626E0,3.095142914E0,3.484506104E0
5.709364667E0,-8.274083506E-1,1.678219305E0,2.899938297E0,3.451183383E0
5.719287667E0,-4.830585118E-1,1.829684117E0,2.712301732E0,3.307214867E0
5.729211667E0,-2.002646510E-1,1.587561442E0,2.516784289E0,2.982391728E0
5.739134667E0,-2.291905345E-1,1.232501843E0,2.212774683E0,2.543218609E0
5.749058667E0,-4.916391546E-1,9.529894397E-1,1.926579790E0,2.204905353E0
5.758981667E0,-6.932906190E-1,7.414646593E-1,1.759189208E0,2.031051056E0
5.768904667E0,-7.694089414E-1,5.368252677E-1,1.666261164E0,1.912223249E0
5.778828667E0,-7.946203811E-1,2.905192021E-1,1.764815984E0,1.957140366E0
5.788751667E0,-7.768483539E-1,3.399980485E-2,2.024506034E0,2.168703307E0
5.798674667E0,-7.230039762E-1,-2.604539886E-1,2.452267866E0,2.569861614E0
5.808598667E0,-7.547001243E-1,-5.438594681E-1,2.897228698E0,3.042908070E0
5.818521667E0,-8.889191589E-1,-9.050346699E-1,3.059771352E0,3.312320298E0
5.828445667E0,-1.052938674E0,-1.226261987E0,2.951070444E0,3.364701336E0
5.838368667E0,-1.215832162E0,-1.303508091E0,2.772814566E0,3.296343703E0
5.848291667E0,-1.283424513E0,-1.284724788E0,2.558821092E0,3.137715991E0
5.858215667E0,-1.109420731E0,-1.271661523E0,2.367960956E0,2.907778616E0
5.868138667E0,-6.858659707E-1,-1.189007329E0,2.156694623E0,2.556458929E0
5.878062667E0,-1.614756842E-1,-1.154191253E0,1.883972299E0,2.215306630E0
5.887985667E0,2.987379022E-1,-1.173274519E0,1.537542313E0,1.957001225E0
5.897908667E0,5.629984282E-1,-1.161028987E0,1.039827316E0,1.657165166E0
5.907832667E0,6.425386874E-1,-1.108873870E0,4.864468271E-1,1.370798213E0
5.917755667E0,5.483863825E-1,-1.036632105E0,-8.648441255E-2,1.175930823E0
5.927678667E0,4.377344044E-1,-1.023199589E0,-5.857138377E-1,1.257620574E0
5.937602667E0,3.305433932E-1,-1.045360244E0,-1.066737957E0,1.529695017E0
5.947525667E0,1.958881563E-1,-1.098447700E0,-1.566016499E0,1.922853919E0
5.957449667E0,9.241612047E-2,-1.130681938E0,-2.000540051E0,2.299813662E0
5.967372667E0,4.496771961E-2,-1.160473794E0,-2.397429754E0,2.663905206E0
5.977295667E0,4.121409953E-2,-1.191901701E0,-2.867841176E0,3.105936458E0
5.987219667E0,3.435220923E-3,-1.213677609E0,-3.301296442E0,3.517326163E0
5.997142667E0,-3.015833035E-2,-1.091987696E0,-3.599958769E0,3.762053933E0
6.007066667E0,-8.900456250E-2,-1.016073003E0,-3.718473060E0,3.855822617E0
6.016989667E0,-2.812615979E-1,-1.144324077E0,-3.904585256E0,4.078525677E0
6.026912667E0,-3.133768451E-1,-1.092230648E0,-4.085806257E0,4.240870854E0
6.036836667E0,-5.084528232E-1,-1.028386947E0,-4.058449473E0,4.217477459E0
6.046759667E0,-6.153655069E-1,-9.985556218E-1,-4.059521268E0,4.225576998E0
6.056682667E0,-6.355040485E-1,-9.336974287E-1,-4.140063740E0,4.291361562E0
6.066606667E0,-6.772474672E-1,-7.908250996E-1,-4.262350654E0,4.387676101E0
6.076529667E0,-7.463893305E-1,-5.817590734E-1,-4.318229570E0,4.420706649E0
6.086453667E0,-8.212883623E-1,-2.667602107E-1,-4.301942151E0,4.387753623E0
6.096376667E0,-9.100660528E-1,6.521575034E-2,-4.105998446E0,4.206149849E0
6.106299667E0,-1.023391378E0,3.176707479E-1,-3.781249936E0,3.930152121E0
6.116223667E0,-1.120969420E0,5.579103273E-1,-3.242902054E0,3.476240801E0
6.126146667E0,-1.106294517E0,7.191706878E-1,-2.590314195E0,2.907029698E0
6.136069667E0,-1.127883899E0,7.687217474E-1,-1.938580615E0,2.370896458E0
6.145993667E0,-1.196836313E0,8.341380572E-1,-1.129889640E0,1.845224663E0
6.155916667E0,-1.338097734E0,9.860668463E-1,-3.517538756E-1,1.698989158E0
6.165840667E0,-1.464687760E0,1.169998031E0,3.690382451E-1,1.910600653E0
6.175763667E0,-1.424994229E0,1.330023167E0,1.115414858E0,2.245822897E0
6.185686667E0,-1.187948545E0,1.497873340E0,1.898850539E0,2.694527724E0
6.195610667E0,-7.403041331E-1,1.611070465E0,2.768359573E0,3.287463000E0
6.205533667E0,-1.668389697E-1,1.581292057E0,3.679024819E0,4.007935058E0
6.215456667E0,3.738465567E-1,1.459611207E0,4.515821605E0,4.760553633E0
6.225380667E0,7.526849545E-1,1.205711070E0,5.290292920E0,5.477907721E0
6.235303667E0,8.961023902E-1,8.352130678E-1,5.818656682E0,5.946204331E0
6.245227667E0,8.333395468E-1,4.213024127E-1,5.704703220E0,5.780621882E0
6.255150667E0,6.979395939E-1,1.474121073E-1,5.172400188E0,5.221357459E0
6.265073667E0,4.253837693E-1,-1.609066039E-2,4.133880894E0,4.155740789E0
6.274997667E0,2.936909511E-1,5.190076321E-2,3.150997272E0,3.165080074E0
6.284920667E0,3.356348562E-1,5.246080953E-1,2.351820887E0,2.432884275E0
6.294843667E0,6.088283928E-1,8.726925507E-1,1.664663120E0,1.975694208E0
6.304767667E0,9.403782380E-1,8.136713406E-1,1.030219172E0,1.614844829E0
6.314690667E0,1.123021281E0,7.277947462E-1,6.662130404E-1,1.494891905E0
6.324613667E0,1.207714107E0,7.041690713E-1,6.317834651E-1,1.534137475E0
6.334537667E0,1.272556732E0,5.604509425E-1,8.785388893E-1,1.644790709E0
6.344460667E0,1.295477233E0,3.742408052E-1,1.371931624E0,1.923671963E0
6.354384667E0,1.280736110E0,2.359626335E-1,2.048793613E0,2.427657022E0
6.364307667E0,1.241174433E0,3.752976894E-2,2.670755510E0,2.945311096E0
6.374230667E0,1.119630043E0,-2.929525208E-1,3.077217105E0,3.287652312E0
6.384154667E0,1.000118509E0,-6.213154873E-1,3.276079740E0,3.481230879E0
6.394077667E0,1.001473529E0,-8.648932421E-1,3.177193383E0,3.441736094E0
6.404000667E0,1.101145971E0,-1.017469318E0,2.839981533E0,3.211426687E0
6.413924667E0,1.307906074E0,-1.041381506E0,2.318189456E0,2.858163063E0
6.423847667E0,1.644281626E0,-1.074156027E0,1.654186664E0,2.567840874E0
6.433770667E0,2.005061995E0,-1.079888930E0,1.203317805E0,2.575734351E0
6.443694667E0,2.304492646E0,-1.046427946E0,7.166031754E-1,2.630440631E0
6.453617667E0,2.514088430E0,-1.095515321E0,1.702253115E-1,2.747684682E0
6.463541667E0,2.496234249E0,-1.145138594E0,-3.100030017E-1,2.763807100E0
6.473464667E0,2.260682968E0,-1.109171493E0,-8.040968174E-1,2.643391869E0
6.483387667E0,1.909652100E0,-1.034032726E0,-1.317350789E0,2.539962189E0
6.493311667E0,1.519716345E0,-9.281653780E-1,-1.734585294E0,2.485923346E0
6.503234667E0,1.189517718E0,-8.295541325E-1,-2.118929211E0,2.567678613E0
6.513157667E0,9.013906121E-1,-7.783983046E-1,-2.465224711E0,2.737835245E0
6.523081667E0,6.968833675E-1,-7.649880078E-1,-2.757777867E0,2.945537615E0
6.533004667E0,5.192046102E-1,-7.612495905E-1,-3.003786601E0,3.141943398E0
6.542927667E0,3.548816244E-1,-7.451709169E-1,-3.221294253E0,3.325350707E0
6.552851667E0,2.223943157E-1,-7.236730438E-1,-3.419772141E0,3.502570970E0
6.562774667E0,1.707999466E-1,-6.854468715E-1,-3.570699302E0,3.639904331E0
6.572697667E0,1.355139736E-1,-6.462082538E-1,-3.627373440E0,3.686975348E0
6.582621667E0,7.172713660E-2,-6.835096890E-1,-3.688954561E0,3.752428018E0
6.592544667E0,-1.771297038E-2,-6.895799759E-1,-3.783102919E0,3.845478122E0
6.602468667E0,-1.121658222E-1,-6.520692104E-1,-3.848465434E0,3.904927864E0
6.612391667E0,-2.000689886E-1,-5.974798974E-1,-3.877346587E0,3.928209055E0
6.622314667E0,-2.774261168E-1,-5.147654772E-1,-3.891467612E0,3.935158056E0
6.632238667E0,-3.050163500E-1,-4.112320456E-1,-3.821171801E0,3.855321089E0
6.642161667E0,-3.070451877E-1,-3.305214661E-1,-3.787047451E0,3.813823486E0
6.652084667E0,-2.941536851E-1,-2.472588694E-1,-3.720110865E0,3.739904836E0
6.662008667E0,-3.032456669E-1,-1.395566654E-1,-3.515869376E0,3.531681111E0
6.671931667E0,-3.085217923E-1,-7.003005534E-2,-3.248079178E0,3.263450360E0
6.681854667E0,-2.940047638E-1,-2.139905512E-2,-2.905180911E0,2.920098088E0
6.691778667E0,-2.009017052E-1,6.000412703E-2,-2.459574546E0,2.468495278E0
6.701697292E0,-2.261912052E-1,2.278177544E-1,-1.901109318E0,1.928024904E0
6.711620292E0,-2.758982393E-1,3.176049668E-1,-1.393737645E0,1.455849366E0
6.721544292E0,-3.435752289E-1,3.353556517E-1,-1.146649514E0,1.243105973E0
6.731467292E0,-5.722513546E-1,4.326068348E-1,-1.110089799E0,1.321710879E0
6.741390292E0,-7.945513840E-1,6.236657757E-1,-1.124519557E0,1.511560497E0
6.751314292E0,-9.208281456E-1,8.566989541E-1,-1.191633899E0,1.732584463E0
6.761237292E0,-9.256034204E-1,1.057425389E0,-1.218331701E0,1.859898459E0
6.771161292E0,-8.572209643E-1,1.230032271E0,-1.031383352E0,1.819768884E0
6.781084292E0,-7.923988777E-1,1.347261929E0,-7.830374855E-1,1.748187172E0
6.791007292E0,-8.601571436E-1,1.413173205E0,-5.255927664E-1,1.735850390E0
6.800931292E0,-9.915882258E-1,1.467627448E0,-1.872301841E-1,1.781076269E0
6.810854292E0,-1.124299848E0,1.520149770E0,2.272444350E-1,1.904349103E0
6.820777292E0,-1.108760142E0,1.475457454E0,7.047274804E-1,1.975592208E0
6.830701292E0,-1.059015539E0,1.477376218E0,1.442670069E0,2.320657521E0
6.840624292E0,-9.193458764E-1,1.494108610E0,2.235571808E0,2.841714040E0
6.850547292E0,-8.470424236E-1,1.416706385E0,2.739035786E0,3.197945417E0
6.860471292E0,-8.930015387E-1,1.405157257E0,2.915625792E0,3.357497941E0
6.870394292E0,-8.682172380E-1,1.506604695E0,2.893864210E0,3.376108550E0
6.880317292E0,-6.356436507E-1,1.746618864E0,2.911292421E0,3.454032986E0
6.890241292E0,-1.982331821E-1,2.018376690E0,3.187569267E0,3.778060175E0
6.900164292E0,2.626873326E-1,2.097949401E0,3.617126779E0,4.189749689E0
6.910087292E0,4.220491022E-1,1.950171551E0,4.188882143E0,4.639830615E0
6.920011292E0,3.017163277E-1,1.626509453E0,4.688239038E0,4.971534071E0
6.929934292E0,1.142005071E-2,1.094699635E0,5.022789820E0,5.140711555E0
6.939857292E0,-3.211149041E-1,5.189766419E-1,5.344329379E0,5.379062004E0
6.949781292E0,-5.581820767E-1,3.554288507E-2,5.685175858E0,5.712622433E0
6.959704292E0,-6.408413869E-1,-4.833267528E-1,5.827118772E0,5.882142094E0
6.969627292E0,-6.595489687E-1,-1.047611715E0,5.400708817E0,5.540771685E0
6.979551292E0,-7.976565479E-1,-1.412023643E0,4.461186392E0,4.746814801E0
6.989474292E0,-9.459340431E-1,-1.403139968E0,3.220209594E0,3.637766185E0
6.999397292E0,-8.767367774E-1,-1.253916686E0,2.422012033E0,2.864806576E0
7.009321292E0,-6.208998965E-1,-9.136096117E-1,1.782892066E0,2.097356270E0
7.019244292E0,-7.428829014E-2,-5.622495461E-1,1.190208932E0,1.318423530E0
7.029168292E0,6.124170484E-1,-5.220598787E-1,8.496665078E-1,1.170271051E0
7.039091292E0,1.184842211E0,-7.109269908E-1,6.252041781E-1,1.516624052E0
7.049014292E0,1.480667469E0,-8.943903986E-1,2.726831478E-1,1.751190007E0
7.058938292E0,1.444553604E0,-9.724042422E-1,-2.560641915E-1,1.760077838E0
7.068861292E0,1.218226012E0,-9.752512515E-1,-9.072954959E-1,1.805096877E0
7.078784292E0,9.534404062E-1,-8.912343639E-1,-1.617750909E0,2.078572900E0
7.088708292E0,6.805026121E-1,-7.567384636E-1,-2.226616212E0,2.448174149E0
7.098631292E0,4.612543908E-1,-6.563289070E-1,-2.676817319E0,2.794436295E0
7.108554292E0,3.220032424E-1,-6.166760141E-1,-2.923631800E0,3.005261768E0
7.118478292E0,1.777787447E-1,-6.167242536E-1,-2.992492120E0,3.060549489E0
7.128401292E0,4.235576838E-2,-6.775437748E-1,-2.940935465E0,3.018271192E0
7.138324292E0,-7.276596755E-2,-7.690646866E-1,-2.825607322E0,2.929302326E0
7.148248292E0,-1.285089362E-1,-8.577830279E-1,-2.662494564E0,2.800211344E0
7.158171292E0,-1.355372894E-1,-9.432570416E-1,-2.495751854E0,2.671494249E0
7.168094292E0,-9.680109367E-2,-9.782198828E-1,-2.298501881E0,2.499879095E0
7.178018292E0,-1.200484537E-1,-9.843802169E-1,-2.147896317E0,2.365771467E0
7.187941292E0,-1.536446545E-1,-9.689391822E-1,-2.086526281E0,2.305654297E0
7.197864292E0,-1.870060895E-1,-9.922420907E-1,-2.157641872E0,2.382212016E0
7.207788292E0,-2.166940114E-1,-9.857668841E-1,-2.313317556E0,2.523911797E0
7.217711292E0,-2.445432763E-1,-8.720382473E-1,-2.516573789E0,2.674583286E0
7.227634292E0,-3.163779286E-1,-7.167376614E-1,-2.785617045E0,2.893694903E0
7.237558292E0,-3.860160743E-1,-5.817181429E-1,-2.990691762E0,3.071097788E0
7.247481292E0,-3.855059047E-1,-4.416258726E-1,-3.130122712E0,3.184543359E0
7.257404292E0,-4.361490780E-1,-3.112569371E-1,-3.207464418E0,3.251912498E0
7.267328292E0,-5.410906653E-1,-1.572015157E-1,-3.202386112E0,3.251579344E0
7.277251292E0,-6.028448640E-1,1.245193809E-2,-3.073151536E0,3.131746692E0
7.287174292E0,-7.225391226E-1,2.140709504E-1,-2.786792336E0,2.886884251E0
7.297098292E0,-8.437384544E-1,3.782403007E-1,-2.330221272E0,2.506968584E0
7.307021292E0,-9.156998451E-1,4.748632005E-1,-1.758440180E0,2.038654736E0
7.316944292E0,-9.774793330E-1,5.764986259E-1,-1.161342398E0,1.623740336E0
7.326867292E0,-9.589037521E-1,7.469914475E-1,-5.059689260E-1,1.316623402E0
7.336791292E0,-8.183058438E-1,9.590106100E-1,2.847851300E-1,1.292450531E0
7.346714292E0,-6.112695323E-1,1.122941394E0,1.153507129E0,1.721983308E0
7.356637292E0,-3.636513515E-1,1.169750109E0,1.901081252E0,2.261563076E0
7.366561292E0,-3.802049652E-2,1.116996530E0,2.566445276E0,2.799244212E0
7.376484292E0,2.207999262E-1,1.024788570E0,3.170651518E0,3.339457332E0
7.386407292E0,4.043595207E-1,9.040187162E-1,3.708816383E0,3.838759620E0
7.396331292E0,4.359365317E-1,7.795142457E-1,4.247071880E0,4.339965745E0
7.406254292E0,4.196584681E-1,6.673207954E-1,4.683116877E0,4.749001364E0
7.416177292E0,4.330602863E-1,5.410726851E-1,4.776909724E0,4.826921107E0
7.426101292E0,4.965533008E-1,4.131864774E-1,4.266914406E0,4.315535516E0
7.436024292E0,3.837166567E-1,4.274975377E-1,3.310713383E0,3.360180906E0
7.445947292E0,4.645238614E-1,6.430390629E-1,2.361562933E0,2.491236869E0
7.455871292E0,8.623683413E-1,1.014505657E0,1.670104539E0,2.135919019E0
7.465794292E0,1.403187769E0,1.384031267E0,1.346905541E0,2.387180973E0
7.475717292E0,1.878716236E0,1.443538673E0,1.305451121E0,2.705102813E0
7.485641292E0,1.926188318E0,1.097762114E0,1.466827256E0,2.658357631E0
7.495564292E0,1.544882176E0,6.330245367E-1,1.712658820E0,2.391773659E0
7.505487292E0,9.766837462E-1,3.105187261E-1,1.990849460E0,2.239154884E0
7.515411292E0,3.974311548E-1,1.711889327E-1,2.328772917E0,2.368636838E0
7.525334292E0,4.974993803E-2,1.101966262E-1,2.692791912E0,2.695504894E0
7.535257292E0,-9.859428853E-3,-4.211924851E-2,3.021335265E0,3.021644920E0
7.545181292E0,1.272813132E-1,-3.478534904E-1,3.196956972E0,3.218343745E0
7.555104292E0,4.006748977E-1,-6.151773727E-1,3.126248932E0,3.211295059E0
7.565027292E0,7.086175599E-1,-7.925555831E-1,2.799658549E0,2.994723892E0
7.574951292E0,1.017889660E0,-8.451372546E-1,2.203678755E0,2.570322235E0
7.584874292E0,1.291499957E0,-7.440558529E-1,1.456708065E0,2.084128028E0
7.594797292E0,1.480795523E0,-5.535716933E-1,7.354522598E-1,1.743584534E0
7.604721292E0,1.642897591E0,-4.442764154E-1,6.910590291E-2,1.703311379E0
7.614644292E0,1.661722409E0,-4.036505458E-1,-5.417796135E-1,1.793817236E0
7.624567292E0,1.569177650E0,-3.684087923E-1,-1.013072796E0,1.903775204E0
7.634490292E0,1.359091138E0,-3.188676730E-1,-1.248976958E0,1.873165437E0
7.644414292E0,1.097871164E0,-2.937845796E-1,-1.301253405E0,1.727683679E0
7.654337292E0,8.421909888E-1,-3.531411275E-1,-1.196939077E0,1.505542252E0
7.664260292E0,5.291263850E-1,-4.883883950E-1,-1.076939009E0,1.295490481E0
7.674184292E0,2.450408012E-1,-6.741690543E-1,-1.172795339E0,1.374771914E0
7.684107292E0,-2.083991513E-2,-8.006335115E-1,-1.493095288E0,1.694338178E0
7.694030292E0,-2.922695661E-1,-8.374455348E-1,-1.940825946E0,2.133902967E0
7.703953417E0,-4.418236546E-1,-8.385848647E-1,-2.429279537E0,2.607648709E0
7.713876417E0,-4.767662499E-1,-8.498618048E-1,-2.883607024E0,3.043806928E0
7.723799417E0,-4.952517106E-1,-8.886498946E-1,-3.336500773E0,3.488152850E0
7.733723417E0,-5.559816232E-1,-9.320204473E-1,-3.697697902E0,3.853666755E0
7.743646417E0,-5.780275997E-1,-9.606396443E-1,-3.969145533E0,4.124446714E0
7.753569417E0,-5.542859307E-1,-9.855549225E-1,-4.121497661E0,4.273791568E0
7.763493417E0,-5.174858212E-1,-9.882171598E-1,-4.243933094E0,4.388089885E0
7.773416417E0,-5.204498479E-1,-9.578850210E-1,-4.370192022E0,4.504108132E0
7.783339417E0,-5.853058483E-1,-8.964053491E-1,-4.509472114E0,4.634810053E0
7.793262417E0,-7.218020079E-1,-8.173623955E-1,-4.646831396E0,4.773062062E0
7.803186417E0,-7.802137189E-1,-7.560291964E-1,-4.691419339E0,4.815571514E0
7.813109417E0,-7.795515217E-1,-6.524922565E-1,-4.707993856E0,4.816497988E0
7.823032417E0,-8.148482390E-1,-5.459729442E-1,-4.599842001E0,4.703255314E0
7.832956417E0,-8.511514083E-1,-4.890681338E-1,-4.365583831E0,4.474591439E0
7.842879417E0,-7.936196302E-1,-3.232334965E-1,-4.036368633E0,4.126328120E0
7.852802417E0,-8.173238039E-1,-1.829965076E-1,-3.448643938E0,3.548894325E0
7.862726417E0,-7.714257923E-1,-1.437882954E-1,-2.809512277E0,2.917041662E0
7.872649417E0,-7.068301392E-1,-1.090207511E-1,-2.250126112E0,2.361051014E0
7.882572417E0,-6.533525281E-1,-1.939755321E-2,-1.728334036E0,1.847805274E0
7.892495417E0,-6.525285092E-1,1.866302598E-1,-1.216460592E0,1.392982656E0
7.902419417E0,-6.950601326E-1,4.334871331E-1,-6.590455234E-1,1.051361348E0
7.912342417E0,-6.912869243E-1,6.427241904E-1,-2.135397309E-1,9.677660943E-1
7.922265417E0,-5.661143363E-1,7.887212715E-1,9.026989996E-2,9.750463275E-1
7.932189417E0,-4.335001431E-1,9.567597243E-1,4.371460283E-1,1.137720613E0
7.942112417E0,-2.850345138E-1,1.143559553E0,7.397961563E-1,1.391499723E0
7.952035417E0,-1.083762418E-1,1.301017469E0,1.041311924E0,1.669946822E0
7.961959417E0,4.447399534E-2,1.468104580E0,1.390991208E0,2.022910165E0
7.971882417E0,9.981723368E-2,1.623445804E0,1.780156739E0,2.411326974E0
7.981805417E0,1.650920409E-1,1.701456724E0,2.217019762E0,2.799533352E0
7.991729417E0,3.097243819E-1,1.651930223E0,2.676967008E0,3.160847199E0
8.001652417E0,5.488129368E-1,1.538170011E0,3.201649947E0,3.594123677E0
8.011575417E0,6.675270559E-1,1.399361205E0,3.569745036E0,3.891899764E0
8.021498417E0,5.746147992E-1,1.282164877E0,3.703379057E0,3.960952585E0
8.031422417E0,3.505482894E-1,1.233153808E0,3.673268820E0,3.890559888E0
8.041345417E0,1.342946099E-1,1.276943898E0,3.636551229E0,3.856569149E0
8.051268417E0,1.067375596E-1,1.397075821E0,3.694224656E0,3.951013739E0
8.061192417E0,3.053192358E-1,1.436180829E0,3.814541059E0,4.087365741E0
8.071115417E0,4.539363080E-1,1.392297476E0,3.922794655E0,4.187226808E0
8.081038417E0,4.184157886E-1,1.196653149E0,3.862577105E0,4.065286265E0
8.090962417E0,1.124131503E-1,8.832344958E-1,3.552005754E0,3.661896334E0
8.100885417E0,-2.733371589E-1,5.787834254E-1,3.187594410E0,3.251224628E0
8.110808417E0,-4.331183200E-1,2.895260525E-1,2.899805565E0,2.946233041E0
8.120731417E0,-4.260370494E-1,-8.671391577E-2,2.690636628E0,2.725537073E0
8.130655417E0,-3.375514273E-1,-3.903364357E-1,2.634876410E0,2.684935231E0
8.140578417E0,-2.017413653E-1,-6.439167300E-1,2.751013223E0,2.832561047E0
8.150501417E0,-1.160952973E-1,-9.254929081E-1,2.758953742E0,2.912360038E0
8.160425417E0,-1.865220863E-1,-1.192295219E0,2.517960749E0,2.792218600E0
8.170348417E0,-4.033934145E-1,-1.295881860E0,2.113358569E0,2.511637012E0
8.180271417E0,-6.126787113E-1,-1.294991037E0,1.629862247E0,2.169983394E0
8.190194417E0,-6.542130920E-1,-1.287884038E0,1.214200058E0,1.887040500E0
8.200118417E0,-5.058867726E-1,-1.285315064E0,9.325537133E-1,1.666617133E0
8.210041417E0,-7.827711448E-2,-1.230451809E0,9.033457017E-1,1.528454258E0
8.219964417E0,5.042263095E-1,-1.224603132E0,9.843179440E-1,1.650084488E0
8.229888417E0,9.683481748E-1,-1.318984501E0,9.104465604E-1,1.872520024E0
8.239811417E0,1.164393914E0,-1.410837827E0,6.055084169E-1,1.926893096E0
8.249734417E0,1.105734792E0,-1.377536765E0,1.023859155E-1,1.769389681E0
8.259658417E0,8.426732379E-1,-1.308008985E0,-4.681216532E-1,1.624845708E0
8.269581417E0,5.030950195E-1,-1.269067991E0,-1.002220364E0,1.693541798E0
8.279504417E0,1.537205221E-1,-1.193209723E0,-1.431127666E0,1.869627192E0
8.289427417E0,-1.041030966E-1,-1.175968623E0,-1.782157071E0,2.137714547E0
8.299351417E0,-2.607685688E-1,-1.162550725E0,-2.068722094E0,2.387286228E0
8.309274417E0,-3.285901308E-1,-1.136846073E0,-2.266349212E0,2.556702802E0
8.319197417E0,-3.652442792E-1,-1.091190720E0,-2.466733292E0,2.721924633E0
8.329121417E0,-3.135692185E-1,-1.055506625E0,-2.663066422E0,2.881725639E0
8.339044417E0,-2.584922478E-1,-9.865135735E-1,-2.795088365E0,2.975322880E0
8.348967417E0,-2.468956111E-1,-8.969582033E-1,-2.869521081E0,3.016561403E0
8.358890417E0,-1.239818756E-1,-8.911782306E-1,-2.945662354E0,3.080015722E0
8.368814417E0,4.837766960E-2,-8.490613210E-1,-3.023643746E0,3.140965939E0
8.378737417E0,2.269949050E-1,-7.120479020E-1,-3.018814530E0,3.109948564E0
8.388660417E0,3.600592607E-1,-5.330371490E-1,-2.945407416E0,3.014829368E0
8.398584417E0,4.102968931E-1,-3.841196761E-1,-2.858191516E0,2.912928116E0
8.408507417E0,3.003995347E-1,-3.217605829E-1,-2.814687647E0,2.848900894E0
8.418430417E0,8.041997284E-2,-3.306351945E-1,-2.799472023E0,2.820076348E0
8.428353417E0,-1.701313175E-1,-3.588912794E-1,-2.800828577E0,2.828849295E0
8.438277417E0,-3.396181257E-1,-3.351010054E-1,-2.818029331E0,2.858132689E0
8.448200417E0,-4.511759837E-1,-1.934437278E-1,-2.740533258E0,2.784152076E0
8.458123417E0,-4.533499785E-1,2.271233976E-2,-2.483903056E0,2.525037910E0
8.468047417E0,-4.006581235E-1,2.056626543E-1,-2.188551423E0,2.234408510E0
8.477970417E0,-4.753868186E-1,3.549993727E-1,-1.949047131E0,2.037351688E0
8.487893417E0,-5.716642942E-1,5.108607066E-1,-1.722523658E0,1.885435355E0
8.497816417E0,-6.169461554E-1,7.158184791E-1,-1.419159000E0,1.705001736E0
8.507740417E0,-5.263584593E-1,9.518568340E-1,-9.115908605E-1,1.419183764E0
8.517663417E0,-3.175003016E-1,1.172449769E0,-1.879394513E-1,1.229132271E0
8.527586417E0,-7.610772438E-2,1.299273830E0,6.798335445E-1,1.468359125E0
8.537510417E0,2.126487614E-1,1.367690054E0,1.716529677E0,2.205055489E0
8.547433417E0,5.409501860E-1,1.298436508E0,2.838069493E0,3.167523152E0
8.557356417E0,7.882991025E-1,1.011186192E0,3.871508142E0,4.078294776E0
8.567279417E0,9.017526278E-1,6.246925467E-1,4.617795292E0,4.746307190E0
8.577203417E0,8.679139137E-1,2.554926261E-1,4.842010869E0,4.925811639E0
8.587126417E0,6.984415774E-1,-3.044382066E-2,4.595600431E0,4.648471876E0
8.597049417E0,3.447723001E-1,-8.665982902E-2,3.909287587E0,3.925418105E0
8.606973417E0,1.703235447E-2,1.190832245E-1,2.919583188E0,2.922060387E0
8.616896417E0,-4.992630467E-2,3.336965042E-1,1.875319589E0,1.905431592E0
8.626819417E0,1.110968050E-1,5.034990621E-1,8.827927387E-1,1.022338899E0
8.636742417E0,4.480320820E-1,8.247024053E-1,2.470249808E-1,9.705092194E-1
8.646666417E0,9.587316978E-1,1.205461979E0,8.990211010E-2,1.542850427E0
8.656589417E0,1.501431371E0,1.271502187E0,3.345589685E-1,1.995731363E0
8.666512417E0,1.832944817E0,9.414028895E-1,7.156875014E-1,2.181314902E0
8.676435417E0,1.785252295E0,5.776508197E-1,1.063271143E0,2.156699272E0
8.686359417E0,1.473921098E0,3.545026517E-1,1.333042962E0,2.018692416E0
8.696282417E0,1.117019188E0,1.527123159E-1,1.613977116E0,1.968749615E0
8.706209333E0,8.001958475E-1,4.901340812E-2,1.980247289E0,2.136374273E0
8.716133333E0,5.730269878E-1,-2.473196805E-2,2.420375982E0,2.487406580E0
8.726056333E0,4.863906938E-1,-2.278797349E-1,2.866996838E0,2.916877775E0
8.735979333E0,4.674588713E-1,-5.678605342E-1,3.128944498E0,3.214230399E0
8.745902333E0,4.349713026E-1,-9.191805464E-1,3.067659831E0,3.231815241E0
8.755826333E0,3.546932709E-1,-1.171396978E0,2.602606797E0,2.876028570E0
8.765749333E0,3.005780210E-1,-1.165050702E0,1.755480904E0,2.128239528E0
8.775672333E0,3.541374931E-1,-1.031815754E0,7.218873042E-1,1.308120176E0
8.785595333E0,6.048123059E-1,-9.510978654E-1,9.639193475E-2,1.131227864E0
8.795519333E0,9.317239934E-1,-7.477679577E-1,-4.733338612E-1,1.285033643E0
8.805442333E0,1.287161030E0,-5.456633341E-1,-8.250234175E-1,1.623328565E0
8.815365333E0,1.568215052E0,-5.794374365E-1,-8.987948138E-1,1.898124946E0
8.825289333E0,1.623448728E0,-7.816581273E-1,-8.645815855E-1,1.998518581E0
8.835212333E0,1.349598622E0,-9.295649090E-1,-9.653027987E-1,1.901924513E0
8.845135333E0,8.509651744E-1,-9.495118082E-1,-1.306676112E0,1.825682575E0
8.855058333E0,3.225451331E-1,-8.802597249E-1,-1.762911546E0,1.996684668E0
8.864982333E0,-1.162654513E-1,-7.547527492E-1,-2.155270241E0,2.286560557E0
8.874905333E0,-4.387326702E-1,-6.512117162E-1,-2.615124516E0,2.730465032E0
8.884828333E0,-6.164593747E-1,-5.679567209E-1,-3.034739422E0,3.148371064E0
8.894751333E0,-7.161142751E-1,-4.747851402E-1,-3.389089462E0,3.496307761E0
8.904675333E0,-8.265770227E-1,-3.303507274E-1,-3.602859573E0,3.711193646E0
8.914598333E0,-1.007595052E0,-2.141086650E-1,-3.668860604E0,3.810725448E0
8.924521333E0,-1.133949216E0,-1.989219841E-1,-3.517751595E0,3.701349357E0
8.934445333E0,-1.185717686E0,-2.578984630E-1,-3.148890520E0,3.374603615E0
8.944368333E0,-1.234441364E0,-3.519143817E-1,-2.777487661E0,3.059759292E0
8.954291333E0,-1.320207885E0,-3.528856042E-1,-2.453946601E0,2.808795299E0
8.964214333E0,-1.364468530E0,-2.710906586E-1,-2.237780301E0,2.634943109E0
8.974138333E0,-1.353522250E0,-1.355907914E-1,-2.053215863E0,2.462945944E0
8.984061333E0,-1.293593552E0,-3.759525776E-2,-1.907545933E0,2.305109361E0
8.993984333E0,-1.274191906E0,-5.756583810E-3,-1.829398481E0,2.229416281E0
9.003907333E0,-1.256509049E0,-4.058844745E-3,-1.797204296E0,2.192891868E0
9.013831333E0,-1.224611829E0,4.325565487E-2,-1.747140436E0,2.134020826E0
9.023754333E0,-1.134734351E0,1.201114574E-1,-1.683609268E0,2.033860609E0
9.033677333E0,-9.857725851E-1,1.878037959E-1,-1.632089451E0,1.915915925E0
9.043600333E0,-8.028773075E-1,2.712575966E-1,-1.512527924E0,1.733762780E0
9.053524333E0,-5.603879388E-1,3.750597078E-1,-1.305310203E0,1.469196771E0
9.063447333E0,-2.818113092E-1,4.643478602E-1,-1.018388500E0,1.154188757E0
9.073370333E0,-6.206453964E-2,5.404724684E-1,-7.431483650E-1,9.209951078E-1
9.083293333E0,5.429987580E-2,5.775794837E-1,-6.603985691E-1,8.790180923E-1
9.093217333E0,6.249233656E-2,6.477662444E-1,-7.489751154E-1,9.922046780E-1
9.103140333E0,-7.015876718E-2,7.776501533E-1,-1.017769865E0,1.282777265E0
9.113063333E0,-2.680259867E-1,1.007194883E0,-1.352789009E0,1.707722918E0
9.122986333E0,-4.044994153E-1,1.221742966E0,-1.568995070E0,2.029290808E0
9.132910333E0,-3.673387519E-1,1.399291331E0,-1.624914333E0,2.175614988E0
9.142833333E0,-2.526899826E-1,1.579694306E0,-1.508581638E0,2.198887193E0
9.152756333E0,-1.291953993E-1,1.728633413E0,-1.164269514E0,2.088154312E0
9.162680333E0,4.337654606E-2,1.835796212E0,-5.162898463E-1,1.907507395E0
9.172603333E0,2.817483786E-1,1.764929712E0,3.099503767E-1,1.813953768E0
9.182526333E0,4.707227871E-1,1.560000883E0,1.150288237E0,1.994579085E0
9.192449333E0,4.978006215E-1,1.375864753E0,1.902554165E0,2.400108670E0
9.202373333E0,3.247983576E-1,1.236784928E0,2.481661234E0,2.791733048E0
9.212296333E0,-2.568535656E-2,1.085656331E0,2.727755338E0,2.935976599E0
9.222219333E0,-5.067819813E-1,1.091169671E0,2.716545056E0,2.971042960E0
9.232142333E0,-9.790272371E-1,1.225606806E0,2.440057125E0,2.900773198E0
9.242066333E0,-1.123710741E0,1.388688867E0,2.148283403E0,2.793976410E0
9.251989333E0,-9.833816586E-1,1.627712810E0,2.225180136E0,2.927100121E0
9.261912333E0,-6.548507309E-1,1.740105650E0,2.518045533E0,3.130071958E0
9.271835333E0,-2.037934457E-1,1.477149346E0,2.807569832E0,3.178985737E0
9.281759333E0,7.407645648E-2,1.057821245E0,2.981095896E0,3.164080570E0
9.291682333E0,3.104066606E-2,7.557382974E-1,3.041869517E0,3.134497417E0
9.301605333E0,-1.205796732E-1,5.475765431E-1,2.978835363E0,3.031144940E0
9.311528333E0,-2.248397675E-1,2.646195450E-1,2.917234361E0,2.937827895E0
9.321452333E0,-2.287968707E-1,-3.059555590E-2,3.083431526E0,3.092059843E0
9.331375333E0,-1.143860100E-1,-3.028565347E-1,3.439717578E0,3.454918705E0
9.341298333E0,6.695354283E-3,-6.280125958E-1,3.813350565E0,3.864723429E0
9.351221333E0,-4.798517525E-3,-9.862063023E-1,4.032331715E0,4.151183561E0
9.361145333E0,-1.126578746E-1,-1.289473312E0,3.938985010E0,4.146207439E0
9.371068333E0,-2.407117420E-1,-1.520223445E0,3.572275711E0,3.889752591E0
9.380991333E0,-4.149356720E-1,-1.541787391E0,2.991721457E0,3.391117404E0
9.390914333E0,-4.918481925E-1,-1.453270779E0,2.359344499E0,2.814323554E0
9.400838333E0,-4.041012199E-1,-1.324684367E0,1.772484607E0,2.249397286E0
9.410761333E0,-1.040617275E-1,-1.128151263E0,1.221137779E0,1.665752560E0
9.420684333E0,2.998624679E-1,-1.031405572E0,8.058252543E-1,1.342784157E0
9.430607333E0,6.542170389E-1,-1.027996353E0,5.433636242E-1,1.334174075E0
9.440531333E0,8.526741694E-1,-1.022082771E0,2.977852446E-1,1.363958387E0
9.450454333E0,8.867758620E-1,-1.004587902E0,7.830708146E-2,1.342274294E0
9.460377333E0,7.939116986E-1,-9.851213515E-1,-1.234095794E-1,1.271215869E0
9.470300333E0,6.452909718E-1,-9.591126439E-1,-3.574584192E-1,1.209989266E0
9.480224333E0,4.382838964E-1,-9.467951918E-1,-5.847244889E-1,1.196000266E0
9.490147333E0,1.770066199E-1,-9.247979665E-1,-7.662659168E-1,1.213979439E0
9.500070333E0,-4.980177725E-2,-9.524003327E-1,-1.022357005E0,1.398127483E0
9.509993333E0,-2.330936971E-1,-1.006153494E0,-1.332246571E0,1.685692277E0
9.519917333E0,-3.543278199E-1,-1.046558339E0,-1.624105663E0,1.964319669E0
9.529840333E0,-4.090348081E-1,-1.066953135E0,-1.862429987E0,2.185027213E0
9.539763333E0,-3.599828084E-1,-1.100614970E0,-2.042829453E0,2.348210619E0
9.549686333E0,-3.277340984E-1,-1.117649664E0,-2.145588421E0,2.441331621E0
9.559610333E0,-3.448086990E-1,-1.120155196E0,-2.266314713E0,2.551435494E0
9.569533333E0,-3.308240595E-1,-1.136973542E0,-2.382611155E0,2.660637012E0
9.579456333E0,-3.022295853E-1,-1.162302218E0,-2.537950625E0,2.807754003E0
9.589379333E0,-2.589728889E-1,-1.161487994E0,-2.755123231E0,3.001137340E0
9.599303333E0,-2.494968912E-1,-1.078222473E0,-3.036497680E0,3.231892721E0
9.609226333E0,-3.511827488E-1,-9.364459124E-1,-3.307145412E0,3.455064550E0
9.619149333E0,-5.124233750E-1,-8.196398860E-1,-3.573940414E0,3.702355647E0
9.629072333E0,-5.991424070E-1,-6.949942052E-1,-3.732296462E0,3.843439274E0
9.638996333E0,-6.499940336E-1,-5.592671737E-1,-3.849209785E0,3.943562854E0
9.648919333E0,-7.817696629E-1,-4.370477951E-1,-3.820039780E0,3.923630781E0
9.658842333E0,-9.991457520E-1,-2.242725876E-1,-3.521157013E0,3.667033834E0
9.668765333E0,-1.072728576E0,-3.567269325E-2,-2.914983768E0,3.106308018E0
9.678689333E0,-9.959334379E-1,1.122782350E-2,-2.221072467E0,2.434167698E0
9.688612333E0,-8.702579163E-1,2.228052288E-2,-1.666251808E0,1.879957540E0
9.698535333E0,-8.185961580E-1,1.280952457E-1,-1.280028597E0,1.524788926E0
9.708454458E0,-9.006527665E-1,3.868374619E-1,-1.084117051E0,1.461550002E0
9.718378458E0,-9.417915832E-1,7.628566977E-1,-9.099273276E-1,1.515549230E0
9.728301458E0,-9.730227314E-1,1.100638359E0,-7.004011256E-1,1.627494937E0
9.738224458E0,-9.674693383E-1,1.343254539E0,-4.359777546E-1,1.711842949E0
9.748147458E0,-6.825985466E-1,1.508504455E0,1.176617664E-1,1.659930950E0
9.758071458E0,-1.695327454E-1,1.566602975E0,9.688280851E-1,1.849760549E0
9.767994458E0,2.833348744E-1,1.523322177E0,1.937467890E0,2.480840771E0
9.777917458E0,5.385485883E-1,1.369782187E0,2.866762950E0,3.222525040E0
9.787840458E0,5.884297232E-1,1.189111702E0,3.848040926E0,4.070338457E0
9.797764458E0,5.695849877E-1,9.738251156E-1,4.778358080E0,4.909732004E0
9.807687458E0,5.380561066E-1,7.345628983E-1,5.443719181E0,5.519344666E0
9.817610458E0,4.672163580E-1,5.578807989E-1,5.552740517E0,5.600218688E0
9.827533458E0,3.955353414E-1,4.983847949E-1,5.037166954E0,5.077192781E0
9.837456458E0,4.088450660E-1,6.112620771E-1,4.099693394E0,4.165126833E0
9.847380458E0,6.619475696E-1,9.042040730E-1,3.108579231E0,3.304394714E0
9.857303458E0,1.182234573E0,1.283950909E0,2.248218750E0,2.846172179E0
9.867226458E0,1.653254617E0,1.597716594E0,1.456279464E0,2.721525128E0
9.877149458E0,1.860187872E0,1.604080703E0,7.972222459E-1,2.582428533E0
9.887073458E0,1.809854601E0,1.468914127E0,3.484928834E-1,2.356847403E0
9.896996458E0,1.678102360E0,1.221450605E0,1.480959392E-1,2.080841541E0
9.906919458E0,1.570590191E0,9.184408736E-1,3.280749911E-1,1.848761852E0
9.916842458E0,1.444772143E0,5.884941888E-1,7.966188133E-1,1.751654501E0
9.926766458E0,1.201040753E0,2.366254154E-1,1.406759979E0,1.864795999E0
9.936689458E0,9.415347442E-1,-2.050495738E-1,1.963801995E0,2.187476006E0
9.946612458E0,5.976171608E-1,-7.509362715E-1,2.160171962E0,2.363767006E0
9.956535458E0,1.211708267E-1,-1.193464369E0,1.993649692E0,2.326731326E0
9.966459458E0,-2.508319567E-1,-1.405344953E0,1.558620356E0,2.113577186E0
9.976382458E0,-3.225900105E-1,-1.482754487E0,9.724416643E-1,1.802295196E0
9.986305458E0,-1.078847833E-1,-1.423684160E0,3.345759255E-1,1.466443577E0
9.996228458E0,2.574527590E-1,-1.227401609E0,-2.225421041E-1,1.273703899E0
1.000615146E1,6.380476604E-1,-1.037460948E0,-6.460068172E-1,1.378678659E0
1.001607546E1,9.769792499E-1,-9.281297100E-1,-9.902131069E-1,1.672254529E0
1.002599846E1,1.257700565E0,-8.475506929E-1,-1.087521885E0,1.866241340E0
1.003592146E1,1.352831840E0,-8.384085712E-1,-1.019182552E0,1.889924865E0
1.004584446E1,1.204787503E0,-8.881710076E-1,-8.555528998E-1,1.724045078E0
1.005576846E1,8.764090410E-1,-9.397870114E-1,-7.855161202E-1,1.506096945E0
1.006569146E1,4.943543822E-1,-1.000864395E0,-9.369935042E-1,1.457419850E0
1.007561446E1,1.744820114E-1,-1.032723534E0,-1.319179214E0,1.684397717E0
1.008553746E1,-3.929043867E-2,-9.905806044E-1,-1.869910914E0,2.116449976E0
1.009546146E1,-1.153277772E-1,-8.642219818E-1,-2.444793954E0,2.595611221E0
1.010538446E1,-1.556170665E-1,-7.416041154E-1,-2.919473260E0,3.016209119E0
1.011530746E1,-2.087646753E-1,-5.757475510E-1,-3.399301039E0,3.454028877E0
1.012523046E1,-2.961274128E-1,-4.382154840E-1,-3.856170310E0,3.892271023E0
1.013515346E1,-4.483520709E-1,-3.237685168E-1,-4.218274927E0,4.254372926E0
1.014507746E1,-5.353517693E-1,-1.846714425E-1,-4.404553185E0,4.440810040E0
1.015500046E1,-5.547186247E-1,-6.952807188E-2,-4.399190703E0,4.434571653E0
1.016492346E1,-8.596428810E-1,-8.939808011E-2,-4.171478491E0,4.260071678E0
1.017484646E1,-8.876330638E-1,2.981582969E-2,-3.946698657E0,4.045393891E0
1.018477046E1,-8.643798566E-1,1.291085681E-1,-3.748868641E0,3.849394452E0
1.019469346E1,-9.309103534E-1,1.245459858E-1,-3.449904013E0,3.575464094E0
1.020461646E1,-9.182987863E-1,2.254002231E-1,-3.284084578E0,3.417497540E0
1.021453946E1,-9.472229156E-1,3.814591929E-1,-3.088136196E0,3.252587820E0
1.022446346E1,-8.652203938E-1,4.784522215E-1,-2.937566884E0,3.099487386E0
1.023438646E1,-6.887476248E-1,5.627658552E-1,-2.761300814E0,2.901010321E0
1.024430946E1,-5.470753271E-1,6.807319692E-1,-2.528293948E0,2.674875271E0
1.025423246E1,-4.302015826E-1,8.248491704E-1,-2.211491219E0,2.399196317E0
1.026415546E1,-2.860232779E-1,9.369671917E-1,-1.799839051E0,2.049179700E0
1.027407946E1,-2.397522140E-1,1.027898704E0,-1.379987918E0,1.737361080E0
1.028400246E1,-2.555123605E-1,1.121729266E0,-9.498029995E-1,1.491874274E0
1.029392546E1,-3.033610032E-1,1.230855559E0,-5.620115644E-1,1.386683203E0
1.030384846E1,-4.431655906E-1,1.311144847E0,-2.796273011E-1,1.411980162E0
1.031377246E1,-6.408855334E-1,1.381199461E0,-5.870896876E-2,1.523775889E0
1.032369546E1,-8.516093914E-1,1.435632361E0,8.033548057E-2,1.671147097E0
1.033361846E1,-9.164491658E-1,1.471699156E0,1.909215313E-1,1.744198530E0
1.034354146E1,-8.935586321E-1,1.558866231E0,3.565322202E-1,1.831836832E0
1.035346446E1,-7.790290730E-1,1.705909964E0,5.243402928E-1,1.947292439E0
1.036338846E1,-7.103931400E-1,1.860576712E0,8.425755894E-1,2.162484159E0
1.037331146E1,-6.953220879E-1,1.909882481E0,1.268173367E0,2.395701898E0
1.038323446E1,-7.148129041E-1,1.808076024E0,1.699792607E0,2.582516467E0
1.039315746E1,-5.982681021E-1,1.654541590E0,2.193942556E0,2.812261818E0
1.040308146E1,-3.899892573E-1,1.496136132E0,2.689308726E0,3.102079362E0
1.041300446E1,-1.506213516E-1,1.377924727E0,3.126288108E0,3.419801264E0
1.042292746E1,-7.112991661E-3,1.383356206E0,3.349077550E0,3.623540454E0
1.043285046E1,7.016337186E-2,1.522478423E0,3.401366276E0,3.727218264E0
1.044277346E1,1.605260964E-1,1.696531030E0,3.344560575E0,3.753674414E0
1.045269746E1,1.641218416E-1,1.856634226E0,3.188709474E0,3.693493569E0
1.046262046E1,2.557651064E-1,2.054584696E0,3.239369166E0,3.844508636E0
1.047254346E1,5.338186294E-1,2.172325984E0,3.462431087E0,4.122182862E0
1.048246646E1,8.130249310E-1,2.059434669E0,3.640578791E0,4.260996906E0
1.049239046E1,1.046118043E0,1.782157656E0,3.683590325E0,4.223657959E0
1.050231346E1,1.236874829E0,1.463192334E0,3.510603958E0,3.999391367E0
1.051223646E1,1.388578354E0,1.084633068E0,3.214870502E0,3.666056612E0
1.052215946E1,1.385872848E0,6.663510346E-1,2.737644149E0,3.139962219E0
1.053208246E1,1.219794528E0,3.478923744E-1,2.136737491E0,2.484869192E0
1.054200646E1,1.003350777E0,1.653452253E-1,1.576451440E0,1.875966676E0
1.055192946E1,7.666772684E-1,-2.572307110E-2,1.126857859E0,1.363181699E0
1.056185246E1,4.126574506E-1,-3.010930145E-1,8.390216517E-1,9.822934933E-1
1.057177546E1,-6.217866998E-2,-5.669910532E-1,7.714991748E-1,9.594561054E-1
1.058169946E1,-4.977230363E-1,-7.608236209E-1,9.346616346E-1,1.303906889E0
1.059162246E1,-7.149953373E-1,-9.145361030E-1,1.284685904E0,1.731476967E0
1.060154546E1,-6.698631647E-1,-1.070559405E0,1.860359488E0,2.248499838E0
1.061146846E1,-3.726986021E-1,-1.274750607E0,2.637025847E0,2.952591857E0
1.062139146E1,-2.091008171E-2,-1.593498412E0,3.289728895E0,3.655405672E0
1.063131546E1,2.958058159E-1,-1.974624314E0,3.659360048E0,4.168639853E0
1.064123846E1,5.269944902E-1,-2.308647385E0,3.536826382E0,4.256373667E0
1.065116146E1,4.980697761E-1,-2.561193892E0,3.004248531E0,3.979107550E0
1.066108446E1,2.862747082E-1,-2.656900533E0,2.136152769E0,3.421143421E0
1.067100846E1,1.202172920E-2,-2.640376886E0,1.215541409E0,2.906763757E0
1.068093146E1,-1.702036768E-1,-2.615769464E0,3.497003335E-1,2.644524438E0
1.069085446E1,-2.735273395E-1,-2.572193674E0,-3.583162057E-1,2.611395796E0
1.070077746E1,-3.329032929E-1,-2.513853372E0,-9.165586549E-1,2.696361093E0
1.071070042E1,-3.889914300E-1,-2.451658586E0,-1.358351465E0,2.829675398E0
1.072062442E1,-4.977351692E-1,-2.400329388E0,-1.676359305E0,2.969764635E0
1.073054742E1,-6.275101738E-1,-2.393908560E0,-1.905592378E0,3.123435532E0
1.074047042E1,-5.811889699E-1,-2.473399411E0,-2.257992956E0,3.399120100E0
1.075039342E1,-3.666676377E-1,-2.492758664E0,-2.891086197E0,3.834927681E0
1.076031642E1,-7.968305921E-2,-2.312852995E0,-3.054004828E0,3.831785988E0
1.077024042E1,1.811496645E-1,-1.992922298E0,-3.070425564E0,3.664978531E0
1.078016342E1,4.926806898E-1,-1.753886368E0,-3.289690304E0,3.760440659E0
1.079008642E1,7.773072141E-1,-1.539865412E0,-3.574474849E0,3.968911997E0
1.080000942E1,9.691245389E-1,-1.349004107E0,-3.908207021E0,4.246539364E0
1.080993342E1,1.062541995E0,-1.144878393E0,-4.271623169E0,4.548242135E0
1.081985642E1,1.103599243E0,-8.843825966E-1,-4.531044831E0,4.746623129E0
1.082977942E1,9.577976051E-1,-6.334411508E-1,-4.654099485E0,4.793669363E0
1.083970242E1,6.525191537E-1,-3.334655392E-1,-4.661285713E0,4.718534201E0
1.084962542E1,3.561392874E-1,-1.585706413E-2,-4.483429200E0,4.497579797E0
1.085954942E1,4.030763492E-2,2.841799432E-1,-4.077890296E0,4.087978989E0
1.086947242E1,-1.813446692E-1,4.480382216E-1,-3.612793407E0,3.644982900E0
1.087939542E1,-2.983424842E-1,5.289262640E-1,-3.022770756E0,3.083166275E0
1.088931842E1,-3.553455278E-1,6.599348849E-1,-2.484188401E0,2.594797970E0
1.089924142E1,-3.969708693E-1,9.195986223E-1,-2.009384549E0,2.245189026E0
1.090916542E1,-4.121119054E-1,1.272953466E0,-1.447354274E0,1.971060918E0
1.091908842E1,-3.870542474E-1,1.541816043E0,-8.070619404E-1,1.782794625E0
1.092901142E1,-3.328860801E-1,1.635021245E0,-1.476597369E-2,1.668629871E0
1.093893442E1,-2.569772342E-1,1.608553823E0,8.220448458E-1,1.824620626E0
1.094885742E1,-1.654525217E-1,1.430421907E0,1.664802284E0,2.201146976E0
1.095878142E1,-1.145615727E-1,1.199765621E0,2.546691628E0,2.817481170E0
1.096870442E1,-9.037471130E-2,9.275894272E-1,3.445170107E0,3.569003614E0
1.097862742E1,-2.419434946E-1,6.244194818E-1,4.204529877E0,4.257523674E0
1.098855042E1,-4.361840151E-1,2.884320384E-1,4.658791291E0,4.688047123E0
1.099847342E1,-5.338947894E-1,-8.901216388E-3,4.533407691E0,4.564746233E0
1.100839742E1,-6.075781851E-1,-6.117941737E-2,3.766355324E0,3.815537524E0
1.101832042E1,-7.160374573E-1,2.706494862E-1,2.736020962E0,2.841086322E0
1.102824342E1,-6.398621245E-1,7.938057178E-1,1.781738995E0,2.052838256E0
1.103816642E1,-2.856183583E-1,1.214063233E0,9.855797732E-1,1.589620983E0
1.104809042E1,1.940293264E-1,1.669293530E0,7.436570728E-1,1.837719813E0
1.105801342E1,7.654484761E-1,1.973724135E0,9.148401582E-1,2.306172337E0
1.106793642E1,1.190180135E0,1.803745576E0,1.259876168E0,2.501462535E0
1.107785942E1,1.271488592E0,1.262492212E0,1.425689755E0,2.289794991E0
1.108778242E1,1.020626083E0,7.592089123E-1,1.368993983E0,1.868748324E0
1.109770642E1,6.506070410E-1,4.950235230E-1,1.278098431E0,1.517192608E0
1.110762942E1,2.793824489E-1,4.109411466E-1,1.391471264E0,1.477538310E0
1.111755242E1,8.587981045E-2,2.497836971E-1,1.724235138E0,1.744349176E0
1.112747542E1,1.099174216E-2,-1.282078046E-1,2.164291910E0,2.168113819E0
1.113739842E1,-1.385401270E-1,-5.542985022E-1,2.555636113E0,2.618724144E0
1.114732242E1,-2.404063712E-1,-9.780362803E-1,2.766641661E0,2.944258187E0
1.115724542E1,-8.235518195E-2,-1.415058348E0,2.710296721E0,3.058574966E0
1.116716842E1,2.691142997E-1,-1.674298747E0,2.318813354E0,2.872732875E0
1.117709142E1,7.133907151E-1,-1.629589182E0,1.563305145E0,2.368208223E0
1.118701442E1,1.102106010E0,-1.374940016E0,5.926544827E-1,1.859122654E0
1.119693842E1,1.399475372E0,-1.047933311E0,-4.060166216E-1,1.794866301E0
1.120686142E1,1.555455112E0,-8.073075235E-1,-1.334487809E0,2.202735516E0
1.121678442E1,1.536624008E0,-6.494859105E-1,-1.985095800E0,2.593000313E0
1.122670742E1,1.317964162E0,-5.367124164E-1,-2.272357226E0,2.681174577E0
1.123663042E1,9.475890975E-1,-5.221125036E-1,-2.141255050E0,2.399062265E0
1.124655442E1,5.907456592E-1,-6.742295730E-1,-1.742555634E0,1.959608657E0
1.125647742E1,2.439433520E-1,-8.301508409E-1,-1.428198795E0,1.669853460E0
1.126640042E1,-9.536721021E-2,-9.013944858E-1,-1.309034294E0,1.592224139E0
1.127632342E1,-3.452903634E-1,-8.912402111E-1,-1.369477547E0,1.670030928E0
1.128624642E1,-5.006264712E-1,-8.179167116E-1,-1.608202990E0,1.872413274E0
1.129617042E1,-6.034503432E-1,-7.245676678E-1,-1.959245260E0,2.174348778E0
1.130609342E1,-6.553342956E-1,-6.518464315E-1,-2.387379559E0,2.560067962E0
1.131601642E1,-6.743155271E-1,-5.689089400E-1,-2.769986268E0,2.907091801E0
1.132593942E1,-6.881082317E-1,-4.781268239E-1,-3.061185794E0,3.173792158E0
1.133586242E1,-6.996016650E-1,-3.915313143E-1,-3.224787380E0,3.322949428E0
1.134578642E1,-7.190654379E-1,-3.540582633E-1,-3.284402667E0,3.380785890E0
1.135570942E1,-7.206485716E-1,-3.168038982E-1,-3.247009138E0,3.341072794E0
1.136563242E1,-7.548964445E-1,-2.794670874E-1,-3.201376882E0,3.301027785E0
1.137555542E1,-7.344396682E-1,-2.518571198E-1,-3.122825972E0,3.217899266E0
1.138547842E1,-6.627090964E-1,-1.770686004E-1,-2.982233765E0,3.060107002E0
1.139540242E1,-5.410487115E-1,-7.443944067E-2,-2.856910976E0,2.908644919E0
1.140532542E1,-3.905961983E-1,5.635838807E-3,-2.721663709E0,2.749554600E0
1.141524842E1,-2.831736739E-1,8.580291957E-2,-2.562670314E0,2.579695449E0
1.142517142E1,-1.819797133E-1,1.974549177E-1,-2.296813205E0,2.312456694E0
1.143509442E1,-8.524728790E-2,2.977984008E-1,-1.921714906E0,1.946519758E0
1.144501842E1,-1.061985925E-2,3.565854299E-1,-1.497710495E0,1.539611210E0
1.145494142E1,6.675049827E-2,3.635450783E-1,-1.163754374E0,1.221042545E0
1.146486442E1,1.883054870E-1,3.915459323E-1,-9.020967364E-1,1.001272039E0
1.147478742E1,2.460674627E-1,5.479294226E-1,-7.412170297E-1,9.540327738E-1
1.148471042E1,2.399853717E-1,7.261519709E-1,-6.707235825E-1,1.017231433E0
1.149463442E1,1.625185351E-1,9.225368482E-1,-6.819303560E-1,1.158669720E0
1.150455742E1,6.016200185E-3,1.109594539E0,-6.624293071E-1,1.292303689E0
1.151448042E1,-9.900037766E-2,1.265033412E0,-5.819108087E-1,1.395969483E0
1.152440342E1,-1.296718012E-1,1.406056559E0,-4.288593543E-1,1.475713444E0
1.153432642E1,-1.380887585E-1,1.575507115E0,-1.102779025E-1,1.585387142E0
1.154424942E1,-1.427357966E-1,1.761456758E0,3.309728712E-1,1.797956190E0
1.155417342E1,-2.346388239E-1,1.853565608E0,8.690482736E-1,2.060583835E0
1.156409642E1,-2.474819407E-1,1.784418774E0,1.435234165E0,2.303322553E0
1.157401942E1,-1.545544812E-1,1.632814506E0,1.968658692E0,2.562340209E0
1.158394242E1,-9.628288418E-2,1.494411496E0,2.501901956E0,2.915827414E0
1.159386542E1,-1.270886658E-1,1.387131461E0,2.873100162E0,3.192959405E0
1.160378942E1,-1.321571602E-1,1.315397819E0,2.850164459E0,3.141842514E0
1.161371242E1,-1.284998730E-1,1.357035842E0,2.486825495E0,2.835905417E0
1.162363542E1,-1.095392621E-1,1.586766513E0,2.089620627E0,2.626088571E0
1.163355842E1,5.589455768E-2,1.899857429E0,1.924412811E0,2.704800755E0
1.164348142E1,3.108565490E-1,2.064692777E0,2.074724845E0,2.943479445E0
1.165340542E1,5.254161805E-1,1.881845666E0,2.400872594E0,3.095415075E0
1.166332842E1,4.530087934E-1,1.409010572E0,2.672714912E0,3.055148566E0
1.167325142E1,2.718516737E-2,8.607598454E-1,2.683560913E0,2.818358692E0
1.168317442E1,-4.254770324E-1,4.497982335E-1,2.436366947E0,2.513808477E0
1.169309742E1,-7.445907269E-1,1.575891861E-1,2.091564242E0,2.225733740E0
1.170302171E1,-8.750163804E-1,-9.276695341E-2,1.740648272E0,1.950414259E0
1.171294471E1,-8.569566701E-1,-2.398627263E-1,1.426943398E0,1.681688533E0
1.172286771E1,-6.974332251E-1,-3.335181642E-1,1.137748298E0,1.375543041E0
1.173279071E1,-5.982952917E-1,-4.587187457E-1,7.979706895E-1,1.097787486E0
1.174271371E1,-6.806534703E-1,-5.406926161E-1,4.027293169E-1,9.580336917E-1
1.175263671E1,-8.055115512E-1,-5.357616591E-1,1.414201730E-1,9.776958013E-1
1.176256071E1,-8.075542760E-1,-4.539415705E-1,1.526976979E-1,9.388947998E-1
1.177248371E1,-6.212327492E-1,-4.472944558E-1,4.509027725E-1,8.884344484E-1
1.178240671E1,-3.291295364E-1,-6.343395755E-1,9.928502011E-1,1.223300646E0
1.179232971E1,-3.106099427E-2,-8.531915018E-1,1.556434082E0,1.775214797E0
1.180225271E1,2.145947148E-1,-1.024462588E0,1.936989003E0,2.201704086E0
1.181217671E1,4.285707942E-1,-1.174733399E0,2.115324402E0,2.457288915E0
1.182209971E1,4.983624293E-1,-1.229857732E0,1.994531452E0,2.395635796E0
1.183202271E1,4.404888815E-1,-1.227959726E0,1.678681819E0,2.126002868E0
1.184194571E1,3.049141699E-1,-1.206532604E0,1.180627685E0,1.715393630E0
1.185186871E1,1.516573229E-1,-1.210155247E0,6.090085602E-1,1.363219385E0
1.186179171E1,3.625916898E-2,-1.200418171E0,9.729883790E-2,1.204900650E0
1.187171571E1,-3.875826895E-3,-1.168956057E0,-3.322686142E-1,1.215267756E0
1.188163871E1,-6.612440765E-2,-1.138044752E0,-7.126685840E-1,1.344401281E0
1.189156171E1,-1.101776227E-1,-1.107352132E0,-1.019055668E0,1.508920908E0
1.190148471E1,-2.045204008E-1,-1.116549802E0,-1.242860186E0,1.683215226E0
1.191140771E1,-4.787159309E-1,-1.144336648E0,-1.354104633E0,1.836375415E0
1.192133171E1,-7.526413196E-1,-1.244174055E0,-1.518899050E0,2.102734496E0
1.193125471E1,-8.464414760E-1,-1.427643310E0,-1.745357620E0,2.408506137E0
1.194117771E1,-7.273639525E-1,-1.510744816E0,-2.005746996E0,2.614274131E0
1.195110071E1,-4.906136991E-1,-1.430361388E0,-2.336041591E0,2.782755076E0
1.196102371E1,-1.550621657E-1,-1.181506521E0,-2.687186771E0,2.939553483E0
1.197094671E1,1.587213533E-1,-8.396385330E-1,-3.045219387E0,3.162838353E0
1.198087071E1,3.592976609E-1,-4.912880293E-1,-3.400714311E0,3.454752750E0
1.199079371E1,4.255957308E-1,-2.083807325E-1,-3.702659265E0,3.732859479E0
1.200071671E1,2.925132488E-1,6.725262791E-2,-3.784722598E0,3.796605333E0
1.201063971E1,8.393575743E-2,3.082412356E-1,-3.509263777E0,3.523774982E0
1.202056271E1,-6.288565317E-2,3.958345726E-1,-3.025195597E0,3.051630386E0
1.203048671E1,-1.856096283E-1,4.061619249E-1,-2.371424847E0,2.413104690E0
1.204040971E1,-3.030655727E-1,3.903373128E-1,-1.637037365E0,1.710000963E0
1.205033271E1,-4.165688359E-1,3.605475032E-1,-9.791636235E-1,1.123514797E0
1.206025571E1,-4.212193823E-1,3.504245111E-1,-4.121257925E-1,6.856170760E-1
1.207017871E1,-3.508405405E-1,3.856110084E-1,1.524497759E-1,5.431628383E-1
1.208010171E1,-2.764619109E-1,4.796225417E-1,7.028242117E-1,8.946680073E-1
1.209002571E1,-2.063146554E-1,5.229574263E-1,1.184758742E0,1.311374655E0
1.209994871E1,-1.852127485E-1,5.631444624E-1,1.556041149E0,1.665142488E0
1.210987171E1,-7.578956276E-2,5.997249359E-1,1.830036997E0,1.927290706E0
1.211979471E1,1.057129812E-1,5.928000784E-1,2.110447825E0,2.194670177E0
1.212971771E1,2.270027988E-1,4.614669371E-1,2.455766839E0,2.509038217E0
1.213964071E1,2.869275498E-1,2.358831114E-1,2.762892426E0,2.787748701E0
1.214956471E1,2.693520987E-1,2.022201061E-2,3.052713763E0,3.064640403E0
1.215948771E1,1.889169231E-1,-1.040009165E-1,3.285014285E0,3.292085152E0
1.216941071E1,9.214977980E-2,-1.355296880E-1,3.325739558E0,3.329775290E0
1.217933371E1,-6.638245258E-2,-8.858122408E-2,3.009979972E0,3.012014724E0
1.218925671E1,-1.932286964E-1,1.256449699E-2,2.417572242E0,2.425314565E0
1.219918071E1,-1.955172966E-1,1.805415541E-1,1.710652640E0,1.731229252E0
1.220910371E1,6.636673819E-2,4.571651405E-1,1.150667136E0,1.239935227E0
1.221902671E1,5.287141563E-1,8.629303318E-1,8.056317115E-1,1.293533869E0
1.222894971E1,9.707680450E-1,1.154944959E0,5.810109222E-1,1.616744305E0
1.223887271E1,1.196889230E0,1.251957284E0,3.924007952E-1,1.775927716E0
1.224879571E1,1.221029460E0,1.242498243E0,2.939085406E-1,1.766662689E0
1.225871971E1,1.224116570E0,1.155793975E0,3.985538203E-1,1.730076946E0
1.226864271E1,1.176788622E0,9.517150390E-1,8.284188956E-1,1.725361076E0
1.227856571E1,1.046705835E0,5.688083678E-1,1.616208413E0,2.007801210E0
1.228848871E1,7.528890954E-1,8.303046227E-2,2.472431989E0,2.585856915E0
1.229841171E1,3.898768446E-1,-4.403695983E-1,3.289099735E0,3.341273171E0
1.230833471E1,8.263416722E-2,-9.056188068E-1,3.745247460E0,3.854069585E0
1.231825871E1,-5.229106486E-2,-1.256729196E0,3.648765478E0,3.859480813E0
1.232818171E1,-8.308644935E-2,-1.386438273E0,2.964600901E0,3.273831539E0
1.233810471E1,3.305606425E-2,-1.208694904E0,1.870905526E0,2.227627339E0
1.234802771E1,4.291741537E-1,-8.578678125E-1,7.664547819E-1,1.227835726E0
1.235795071E1,1.015315642E0,-4.739843640E-1,-1.049171752E-1,1.125404214E0
1.236787371E1,1.484271839E0,-1.656945965E-1,-6.142084891E-1,1.614859022E0
1.237779771E1,1.760394173E0,-4.915491074E-2,-7.734422046E-1,1.923438768E0
1.238772071E1,1.809604486E0,-1.511569566E-1,-6.614528221E-1,1.932624293E0
1.239764371E1,1.568084367E0,-3.525014421E-1,-4.190412945E-1,1.660945952E0
1.240756671E1,1.062954078E0,-5.580272716E-1,-3.175757307E-1,1.241821304E0
1.241748971E1,4.871429381E-1,-7.046421111E-1,-4.381903410E-1,9.622055507E-1
1.242741271E1,-5.509392768E-3,-8.281408605E-1,-7.857365602E-1,1.141590811E0
1.243733671E1,-3.731783661E-1,-8.863194868E-1,-1.350308620E0,1.657756826E0
1.244725971E1,-6.230137380E-1,-8.448826084E-1,-1.993888843E0,2.253345393E0
1.245718271E1,-7.506605753E-1,-7.414035559E-1,-2.650716518E0,2.852975392E0
1.246710571E1,-7.561294761E-1,-6.017480725E-1,-3.224650555E0,3.366333870E0
1.247702871E1,-6.737208652E-1,-4.712580997E-1,-3.670665055E0,3.761617464E0
1.248695171E1,-5.976765101E-1,-3.858355415E-1,-4.006485853E0,4.069154109E0
1.249687571E1,-5.719921768E-1,-3.156663224E-1,-4.251532720E0,4.301435894E0
1.250679871E1,-6.626800065E-1,-2.617892003E-1,-4.365878531E0,4.423638064E0
1.251672171E1,-7.862728230E-1,-2.045698097E-1,-4.339799949E0,4.415193921E0
1.252664471E1,-9.352693795E-1,-1.574585009E-1,-4.207172234E0,4.312750885E0
1.253656771E1,-1.079199835E0,-1.675455326E-1,-4.000118819E0,4.146527989E0
1.254649071E1,-1.116990829E0,-2.222941822E-1,-3.825261344E0,3.991203774E0
1.255641471E1,-1.174012876E0,-1.968880302E-1,-3.740217100E0,3.925085360E0
1.256633771E1,-1.210173227E0,-9.644280553E-2,-3.597404705E0,3.796727679E0
1.257626071E1,-1.083300342E0,-2.486762345E-2,-3.433271023E0,3.600209431E0
1.258618371E1,-9.030910555E-1,1.092435300E-1,-3.067583817E0,3.199621552E0
1.259610671E1,-6.307122552E-1,1.773621306E-1,-2.652687029E0,2.732398900E0
1.260602971E1,-3.488193043E-1,1.761713451E-1,-2.254623790E0,2.288239429E0
1.261595371E1,-1.458675653E-1,2.065792054E-1,-1.859989359E0,1.877102216E0
1.262587671E1,-1.160398950E-1,3.241234428E-1,-1.521881715E0,1.560334970E0
1.263579971E1,-2.018287812E-1,4.388578007E-1,-1.338207808E0,1.422719636E0
1.264572271E1,-3.741050036E-1,5.501335305E-1,-1.188256547E0,1.361820501E0
1.265564571E1,-5.999742465E-1,6.889399981E-1,-1.051643370E0,1.393040270E0
1.266556871E1,-7.998415062E-1,7.462432963E-1,-1.025016904E0,1.499094775E0
1.267549271E1,-8.722139561E-1,7.942892826E-1,-9.293178642E-1,1.501760414E0
1.268541571E1,-9.391448410E-1,9.143063074E-1,-7.259680760E-1,1.498325300E0
1.269533871E1,-9.719921596E-1,1.067976397E0,-4.413250333E-1,1.510003354E0
1.270526204E1,-9.662996028E-1,1.205006188E0,-7.249202549E-2,1.546295551E0
1.271518504E1,-9.219872099E-1,1.311136076E0,3.451319039E-1,1.639589661E0
1.272510804E1,-8.034817634E-1,1.305132155E0,8.421621913E-1,1.748768150E0
1.273503204E1,-5.350007902E-1,1.186482502E0,1.481199712E0,1.971780708E0
1.274495504E1,-1.036845821E-1,9.809756756E-1,2.266345119E0,2.471716805E0
1.275487804E1,3.136547340E-1,8.172989532E-1,2.990842035E0,3.116326837E0
1.276480104E1,5.280323710E-1,8.239978158E-1,3.324213434E0,3.465282895E0
1.277472404E1,6.493024541E-1,9.872047144E-1,3.113436513E0,3.330113173E0
1.278464704E1,5.903144270E-1,1.273577363E0,2.589885594E0,2.945840765E0
1.279457004E1,5.013069409E-1,1.679757707E0,2.116964546E0,2.748532971E0
1.280449404E1,5.244082667E-1,2.095982690E0,1.950848658E0,2.911006347E0
1.281441704E1,6.730294320E-1,2.368555910E0,2.196687824E0,3.299767130E0
1.282434004E1,9.441521041E-1,2.281202017E0,2.849158738E0,3.770014768E0
1.283426304E1,1.175371622E0,1.758942456E0,3.555635120E0,4.137380587E0
1.284418604E1,1.136774737E0,1.066449982E0,3.968165540E0,4.263321489E0
1.285410904E1,8.714212199E-1,4.368624383E-1,4.028462028E0,4.144723156E0
1.286403304E1,6.068959612E-1,-1.473746851E-1,3.729543593E0,3.781472916E0
1.287395604E1,2.599870884E-1,-5.898510352E-1,3.211390824E0,3.275446313E0
1.288387904E1,-9.209890902E-2,-7.301827490E-1,2.590115975E0,2.692647362E0
1.289380204E1,-3.327265973E-1,-7.224410355E-1,1.916541290E0,2.075032181E0
1.290372504E1,-5.498956950E-1,-7.042924476E-1,1.171749272E0,1.473570319E0
1.291364804E1,-7.935851316E-1,-6.100853249E-1,3.276966763E-1,1.053264723E0
1.292357104E1,-1.105600306E0,-4.097828132E-1,-5.592861772E-1,1.305019164E0
1.293349504E1,-1.375414372E0,-9.529645890E-2,-1.250905954E0,1.861615378E0
1.294341804E1,-1.457470688E0,2.392405826E-1,-1.611982630E0,2.186308501E0
1.295334104E1,-1.279525590E0,5.580266869E-1,-1.450878975E0,2.013362689E0
1.296326404E1,-7.950852348E-1,8.331375986E-1,-5.624156070E-1,1.281635714E0
1.297318704E1,-1.472273353E-1,5.821976146E-1,7.326876962E-1,9.473442937E-1
1.298311004E1,2.988775045E-1,-7.059752762E-2,1.902186960E0,1.926817844E0
1.299303304E1,4.498644532E-1,-4.794085336E-1,2.711821091E0,2.790373487E0
1.300295704E1,4.151254141E-1,-7.035729477E-1,3.065053142E0,3.172048986E0
1.301288004E1,2.553270037E-1,-9.774252462E-1,2.936696818E0,3.105598202E0
1.302280304E1,3.429391067E-2,-1.200504125E0,2.394407328E0,2.678725943E0
1.303272604E1,-2.083465263E-1,-1.287395504E0,1.672194918E0,2.120620499E0
1.304264904E1,-4.285570532E-1,-1.256854327E0,9.361988676E-1,1.624749909E0
1.305257204E1,-4.440844806E-1,-1.233562820E0,2.314462441E-1,1.331336029E0
1.306249604E1,-3.390924610E-1,-1.180713639E0,-2.999767810E-1,1.264537252E0
1.307241904E1,-1.472996946E-1,-1.157743729E0,-7.436266673E-1,1.383852724E0
1.308234204E1,1.421735868E-2,-1.194884951E0,-1.156480438E0,1.662948941E0
1.309226504E1,9.009127666E-2,-1.200331340E0,-1.518045357E0,1.937362503E0
1.310218804E1,1.860832527E-1,-1.222079766E0,-1.785854850E0,2.171953839E0
1.311211104E1,2.656024620E-1,-1.234118306E0,-2.043146957E0,2.401674863E0
1.312203404E1,3.230944790E-1,-1.265542704E0,-2.423255151E0,2.752844693E0
1.313195804E1,4.335779111E-1,-1.230320832E0,-2.864117669E0,3.147197035E0
1.314188104E1,5.388810025E-1,-1.075927441E0,-3.310552585E0,3.522466609E0
1.315180404E1,6.733174074E-1,-8.363956672E-1,-3.694415275E0,3.847287131E0
1.316172704E1,8.464338747E-1,-5.565198594E-1,-3.874249316E0,4.004494028E0
1.317165004E1,9.605181684E-1,-2.561805511E-1,-3.890360734E0,4.015361786E0
1.318157304E1,9.709339598E-1,-3.535518944E-3,-3.899352583E0,4.018417079E0
1.319149704E1,8.921066223E-1,2.594871515E-1,-3.816575305E0,3.928031933E0
1.320142004E1,8.130610375E-1,6.469412023E-1,-3.600826496E0,3.747739669E0
1.321134304E1,5.011421956E-1,8.477249399E-1,-3.272876635E0,3.417821315E0
1.322126604E1,3.091094010E-1,9.377325922E-1,-2.859090818E0,3.024779553E0
1.323118904E1,2.194413257E-1,1.129960684E0,-2.412106265E0,2.672680728E0
1.324111204E1,1.878068657E-1,1.218111261E0,-1.937277855E0,2.296108001E0
1.325103504E1,2.517520161E-1,1.225491616E0,-1.319739377E0,1.818494103E0
1.326095804E1,4.168466882E-1,1.274641557E0,-6.482293439E-1,1.489521246E0
1.327088204E1,4.878174144E-1,1.279033985E0,1.237580734E-1,1.374485295E0
1.328080504E1,4.943652727E-1,1.190707115E0,8.935902071E-1,1.568656723E0
1.329072804E1,4.896905699E-1,1.012779266E0,1.746959757E0,2.077832305E0
1.330065104E1,4.418932365E-1,6.679014239E-1,2.632024139E0,2.751165755E0
1.331057404E1,2.138065101E-1,2.662599814E-1,3.446704416E0,3.463578920E0
1.332049704E1,-1.489600206E-1,-1.035930732E-1,4.056430430E0,4.060486233E0
1.333042004E1,-4.671175401E-1,-5.008467650E-1,4.180203706E0,4.235935470E0
1.334034404E1,-6.889768356E-1,-8.241135907E-1,3.734909583E0,3.886309545E0
1.335026704E1,-9.098442972E-1,-8.170051306E-1,2.907387650E0,3.154079418E0
1.336019004E1,-9.498139630E-1,-4.335792267E-1,1.978589019E0,2.237175008E0
1.337011304E1,-7.365348718E-1,7.228327990E-3,1.098641535E0,1.322705216E0
1.338003604E1,-4.071353401E-1,4.719650280E-1,6.659335434E-1,9.121280925E-1
1.338995904E1,6.553369269E-2,7.710922086E-1,6.228033113E-1,9.933588595E-1
1.339988304E1,5.950375155E-1,5.746906668E-1,7.719119883E-1,1.131453545E0
1.340980604E1,8.756689297E-1,8.248316288E-2,1.144595972E0,1.443502507E0
1.341972904E1,9.082262264E-1,-2.399112582E-1,1.502495856E0,1.771983659E0
1.342965204E1,8.277175221E-1,-3.992525625E-1,1.799480032E0,2.020556184E0
1.343957504E1,6.818283221E-1,-4.388259333E-1,2.083537769E0,2.235752154E0
1.344949804E1,5.251142814E-1,-3.562831289E-1,2.324206241E0,2.409277346E0
1.345942104E1,4.476720397E-1,-2.959293383E-1,2.416293456E0,2.475168377E0
1.346934404E1,4.288862514E-1,-3.996086580E-1,2.264496814E0,2.339140081E0
1.347926804E1,4.501746480E-1,-4.805949336E-1,1.874268844E0,1.986583098E0
1.348919104E1,5.728498171E-1,-4.109937716E-1,1.348929847E0,1.522065874E0
1.349911404E1,8.916398683E-1,-2.682518354E-1,8.761140490E-1,1.278497763E0
1.350903704E1,1.459062154E0,-1.367675436E-1,6.681455451E-1,1.610585669E0
1.351896004E1,2.085088889E0,-7.948763430E-2,6.605605370E-1,2.188664931E0
1.352888304E1,2.518148444E0,-1.235566369E-1,7.314609504E-1,2.625142463E0
1.353880604E1,2.719303772E0,-2.603031304E-1,8.259133637E-1,2.853857672E0
1.354873004E1,2.660553581E0,-4.552264962E-1,8.798089045E-1,2.838985774E0
1.355865304E1,2.408816767E0,-6.053210136E-1,8.341784030E-1,2.620050640E0
1.356857604E1,2.011658239E0,-6.843478873E-1,6.280459249E-1,2.215748764E0
1.357849904E1,1.549621929E0,-7.117125642E-1,2.832268471E-1,1.728606475E0
1.358842204E1,1.113568892E0,-7.051493570E-1,-2.311673319E-1,1.338173990E0
1.359834504E1,7.474232644E-1,-6.452683139E-1,-8.549798727E-1,1.306140619E0
1.360826804E1,4.721335740E-1,-5.611315584E-1,-1.526927277E0,1.693896587E0
1.361819104E1,2.989127339E-1,-4.797046950E-1,-2.175240237E0,2.247473137E0
1.362811504E1,1.756504678E-1,-4.077254704E-1,-2.798755154E0,2.833747264E0
1.363803804E1,1.245141184E-1,-3.425863186E-1,-3.282478348E0,3.302655486E0
1.364796104E1,2.131964263E-2,-2.659442317E-1,-3.583339228E0,3.593257698E0
1.365788404E1,-1.221223149E-1,-2.377401870E-1,-3.737418038E0,3.746962483E0
1.366780704E1,-2.529352002E-1,-3.034178674E-1,-3.776989070E0,3.797589374E0
1.367773004E1,-3.697093593E-1,-3.875712875E-1,-3.721330009E0,3.759679980E0
1.368765304E1,-4.459785764E-1,-4.301670840E-1,-3.700493456E0,3.752011784E0
1.369757704E1,-4.660371208E-1,-4.184337687E-1,-3.751081812E0,3.803010935E0
1.370750367E1,-4.003135763E-1,-2.994897079E-1,-3.798414438E0,3.831174400E0
1.371742667E1,-2.305268060E-1,-1.048812148E-1,-3.756537849E0,3.765065642E0
1.372734967E1,-1.011884058E-1,1.878213376E-2,-3.741463142E0,3.742878345E0
1.373727267E1,-1.186234872E-1,9.844196856E-2,-3.755390040E0,3.758552475E0
1.374719567E1,-2.014564598E-1,2.226400450E-1,-3.624391944E0,3.636807702E0
1.375711867E1,-2.380468735E-1,3.437507915E-1,-3.363034269E0,3.388927620E0
1.376704167E1,-2.125610532E-1,3.364803636E-1,-3.001072909E0,3.027348648E0
1.377696567E1,-1.808073100E-1,2.950218505E-1,-2.504187047E0,2.527979815E0
1.378688867E1,-1.821254186E-1,3.321084005E-1,-1.901788765E0,1.939140573E0
1.379681167E1,-2.307270366E-1,4.730569956E-1,-1.325325807E0,1.426010652E0
1.380673467E1,-2.782779099E-1,5.456308821E-1,-7.908721697E-1,1.000315172E0
1.381665767E1,-3.034374556E-1,5.263505656E-1,-5.475572473E-1,8.178863896E-1
1.382658067E1,-2.872070467E-1,5.283801341E-1,-5.524098516E-1,8.165966556E-1
1.383650367E1,-2.565090915E-1,7.178240740E-1,-6.648956627E-1,1.011511027E0
1.384642667E1,-3.083510171E-1,1.066656681E0,-8.469598317E-1,1.396487659E0
1.385635067E1,-3.611828032E-1,1.425400318E0,-8.452097601E-1,1.696053838E0
1.386627367E1,-2.743418567E-1,1.687992341E0,-4.682239795E-1,1.773080735E0
1.387619667E1,-9.369973049E-2,1.773299124E0,2.371057642E-1,1.791532463E0
1.388611967E1,2.343683901E-1,1.754255328E0,1.195188421E0,2.135606625E0
1.389604267E1,6.110945544E-1,1.655909253E0,2.208831906E0,2.827438841E0
1.390596567E1,8.357760085E-1,1.604748455E0,3.233144220E0,3.704991321E0
1.391588867E1,8.225798661E-1,1.442921500E0,3.921874888E0,4.259080033E0
1.392581267E1,5.253448079E-1,1.219756667E0,4.091091555E0,4.301258374E0
1.393573567E1,2.412305363E-1,9.966812968E-1,3.799993186E0,3.935926065E0
1.394565867E1,7.218285397E-2,9.570991552E-1,3.329682920E0,3.465261535E0
1.395558167E1,4.394661304E-2,1.304433705E0,3.076593207E0,3.341991077E0
1.396550467E1,2.946729910E-2,1.630225359E0,3.038824287E0,3.448616547E0
1.397542767E1,-9.944359660E-2,1.490103852E0,3.067683805E0,3.411888399E0
1.398535067E1,-4.394681038E-1,1.040800878E0,2.950589218E0,3.159489740E0
1.399527367E1,-8.119078204E-1,6.208076566E-1,2.623594208E0,2.815642559E0
1.400519667E1,-1.092182116E0,3.398337418E-1,2.329175790E0,2.594881232E0
1.401512067E1,-1.401734882E0,2.445130169E-1,2.025463223E0,2.475307771E0
1.402504367E1,-1.656578321E0,2.375758803E-1,1.858093691E0,2.500641158E0
1.403496667E1,-1.715434347E0,1.712968138E-1,1.944637746E0,2.598783092E0
1.404488967E1,-1.693262875E0,-1.448940039E-2,2.113029370E0,2.707811335E0
1.405481267E1,-1.706620985E0,-1.794007623E-1,2.264228427E0,2.841033296E0
1.406473567E1,-1.676666138E0,-2.314126226E-1,2.220121710E0,2.791720177E0
1.407465867E1,-1.540802282E0,-1.945970911E-1,2.006972573E0,2.537691590E0
1.408458167E1,-1.240001189E0,-7.980338395E-2,1.978114809E0,2.336002939E0
1.409450567E1,-7.835774758E-1,-8.832190007E-2,2.140770316E0,2.281379399E0
1.410442867E1,-2.565740687E-1,-3.674808392E-1,2.301961094E0,2.345185984E0
1.411435167E1,1.030839269E-1,-6.801223969E-1,2.236204476E0,2.339616043E0
1.412427467E1,2.088775997E-1,-8.546395648E-1,1.885758623E0,2.080895053E0
1.413419767E1,1.174103361E-1,-9.529865161E-1,1.191701142E0,1.530398673E0
1.414412067E1,-1.312056720E-1,-1.017346526E0,3.396431226E-1,1.080539834E0
1.415404367E1,-3.373929678E-1,-1.110639437E0,-4.365349942E-1,1.240127725E0
1.416396667E1,-4.567467722E-1,-1.253139883E0,-1.011194086E0,1.673765414E0
1.417389067E1,-5.053694402E-1,-1.366463308E0,-1.497097122E0,2.088999769E0
1.418381367E1,-5.251653349E-1,-1.416728312E0,-1.881454487E0,2.413045530E0
1.419373667E1,-4.929958548E-1,-1.436267368E0,-2.222928373E0,2.692084586E0
1.420365967E1,-3.487558620E-1,-1.411605859E0,-2.551754732E0,2.936956582E0
1.421358267E1,-1.335944058E-1,-1.358478642E0,-2.843441330E0,3.154119574E0
1.422350567E1,6.529790372E-2,-1.287384101E0,-3.122097993E0,3.377738522E0
1.423342867E1,1.912840587E-1,-1.192566530E0,-3.366925006E0,3.577008319E0
1.424335167E1,1.840994386E-1,-1.040932440E0,-3.472124602E0,3.629474094E0
1.425327467E1,-4.206591094E-2,-8.551254684E-1,-3.371306909E0,3.478321346E0
1.426319867E1,-2.950831001E-1,-8.112953246E-1,-3.196159412E0,3.310696169E0
1.427312167E1,-4.931760952E-1,-8.699124920E-1,-2.988747563E0,3.151599974E0
1.428304467E1,-5.076931237E-1,-8.692780691E-1,-2.853347098E0,3.025720795E0
1.429296767E1,-4.164461540E-1,-7.272948092E-1,-2.729722341E0,2.855480555E0
1.430289067E1,-3.546983872E-1,-4.826946688E-1,-2.647933243E0,2.714839875E0
1.431281367E1,-3.369202204E-1,-3.061441317E-1,-2.658212648E0,2.696911928E0
1.432273667E1,-4.016191134E-1,-2.411008742E-1,-2.691933541E0,2.732386088E0
1.433265967E1,-5.631784128E-1,-1.442209893E-1,-2.790233422E0,2.850153008E0
1.434258267E1,-8.338494971E-1,-2.786549091E-2,-2.890609065E0,3.008604699E0
1.435250667E1,-1.108214743E0,9.281519294E-2,-2.921472423E0,3.125980757E0
1.436242967E1,-1.433026695E0,3.060830283E-1,-2.826741098E0,3.183978260E0
1.437235267E1,-1.748287659E0,6.485766685E-1,-2.491622550E0,3.112128591E0
1.438227567E1,-1.938201131E0,9.619304171E-1,-1.949704943E0,2.912607614E0
1.439219867E1,-1.987975408E0,1.172581623E0,-1.257378822E0,2.628306563E0
1.440212167E1,-1.943820451E0,1.389956251E0,-3.608404487E-1,2.416737916E0
1.441204467E1,-1.721310507E0,1.468608026E0,7.287478423E-1,2.377139628E0
1.442196767E1,-1.362166627E0,1.264329115E0,1.894027171E0,2.653557038E0
1.443189167E1,-8.425443068E-1,9.086687145E-1,3.080246547E0,3.320162426E0
1.444181467E1,-3.365431115E-1,6.415874916E-1,4.128214942E0,4.191307002E0
1.445173767E1,5.787720233E-2,3.990870863E-1,4.882151420E0,4.898777680E0
1.446166067E1,2.445991172E-1,2.049981183E-1,5.176558728E0,5.186387300E0
1.447158367E1,2.583004225E-1,3.625273705E-5,4.732417676E0,4.739461591E0
1.448150667E1,1.646839052E-2,-4.570008337E-2,3.452475618E0,3.452817342E0
1.449142967E1,-3.776687354E-1,3.980421889E-1,2.058512855E0,2.130386451E0
1.450135267E1,-4.233327122E-1,1.014391344E0,1.082407326E0,1.542661985E0
1.451127567E1,2.287430763E-3,1.434987705E0,6.790412468E-1,1.587542743E0
1.452119967E1,6.843328308E-1,1.672104871E0,6.921115279E-1,1.934751791E0
1.453112267E1,1.180022059E0,1.627480383E0,1.038661382E0,2.262733286E0
1.454104567E1,1.482801118E0,1.310346994E0,1.769044105E0,2.654284357E0
1.455096867E1,1.647001459E0,7.798121613E-1,2.773414491E0,3.318516046E0
1.456089167E1,1.717556156E0,1.434681603E-1,3.797798141E0,4.170593840E0
1.457081467E1,1.631209006E0,-2.341201758E-1,5.016563705E0,5.280299848E0
1.458073767E1,1.629252382E0,-6.502475104E-1,6.163857583E0,6.408621182E0
1.459066067E1,1.777823407E0,-1.158239865E0,6.662510473E0,6.992225787E0
1.460058367E1,1.916352425E0,-1.517659733E0,6.116967591E0,6.587335591E0
1.461050667E1,1.904585195E0,-1.549581145E0,4.581115124E0,5.197620828E0
1.462043067E1,1.769500919E0,-1.096958706E0,2.707225764E0,3.415190074E0
1.463035367E1,1.986524713E0,-5.367223567E-1,1.076460122E0,2.322308705E0
1.464027667E1,2.521004809E0,7.363164783E-2,-3.589792800E-1,2.547499360E0
1.465019967E1,3.105030263E0,7.643109003E-1,-1.275249667E0,3.442621937E0
1.466012267E1,3.509825694E0,1.241538422E0,-1.404837415E0,3.979178586E0
1.467004567E1,3.703273222E0,1.246828691E0,-7.410503840E-1,3.977181165E0
1.467996867E1,3.396385033E0,5.916835526E-1,3.268231022E-1,3.462994955E0
1.468989167E1,2.401633317E0,-1.541033685E-1,1.368316875E0,2.768371635E0
1.469981467E1,1.272156782E0,-7.213701180E-1,2.018982169E0,2.492999544E0
1.470973546E1,2.485837754E-1,-1.183321497E0,2.034395429E0,2.366602717E0
1.471965846E1,-5.170638715E-1,-1.528614492E0,1.486449342E0,2.193980164E0
1.472958146E1,-1.095467959E0,-1.746086475E0,4.425775069E-1,2.108255885E0
1.473950446E1,-1.505668263E0,-1.798764333E0,-6.936247873E-1,2.446161358E0
1.474942746E1,-1.775424002E0,-1.644949817E0,-1.712627830E0,2.964976285E0
1.475935046E1,-1.831750523E0,-1.462262627E0,-2.564594632E0,3.474286632E0
1.476927346E1,-1.599599982E0,-1.357642783E0,-3.207434598E0,3.832694969E0
1.477919646E1,-1.277181587E0,-1.297864358E0,-3.632060568E0,4.062943350E0
1.478911946E1,-9.602971436E-1,-1.249557002E0,-3.854171732E0,4.163916791E0
1.479904246E1,-5.862862802E-1,-1.238796078E0,-3.968508772E0,4.198500827E0
1.480896646E1,-3.870720083E-1,-1.200436589E0,-4.107881835E0,4.297157888E0
1.481888946E1,-3.298936214E-1,-1.105700294E0,-4.280750087E0,4.433534059E0
1.482881246E1,-2.291200756E-1,-9.585346466E-1,-4.546383832E0,4.651977066E0
1.483873546E1,-1.865183587E-1,-7.994661149E-1,-4.762879915E0,4.833110826E0
1.484865846E1,-1.285419729E-1,-6.261552277E-1,-4.847140632E0,4.889106842E0
1.485858146E1,-7.197191566E-2,-4.201350161E-1,-4.834802422E0,4.853556206E0
1.486850446E1,5.390694290E-3,-2.286977604E-1,-4.639046997E0,4.644683926E0
1.487842746E1,5.935698643E-2,-8.257905722E-2,-4.396211547E0,4.397387692E0
1.488835046E1,5.520414770E-2,9.056635380E-2,-4.033018178E0,4.034412645E0
1.489827346E1,-1.520539194E-2,2.780105460E-1,-3.634764905E0,3.645413143E0
1.490819646E1,-2.449142821E-2,3.890205199E-1,-3.277492427E0,3.300589857E0
1.491812046E1,3.475343786E-2,4.980944806E-1,-3.004546739E0,3.045752292E0
1.492804346E1,5.736571714E-2,6.794809574E-1,-2.840575610E0,2.921276261E0
1.493796646E1,-3.252367526E-3,9.257206571E-1,-2.616406226E0,2.775346978E0
1.494788946E1,-1.672961488E-2,1.171839319E0,-2.180041970E0,2.475089950E0
1.495781246E1,3.091656804E-2,1.346259423E0,-1.492198325E0,2.009981619E0
1.496773546E1,1.503595060E-1,1.338728210E0,-6.488181585E-1,1.495247874E0
1.497765846E1,3.000666820E-1,1.267822534E0,1.410909748E-1,1.310465816E0
1.498758146E1,4.294222949E-1,1.189262268E0,7.616659123E-1,1.476104065E0
1.499750446E1,3.174405138E-1,1.123402154E0,1.135905256E0,1.628828300E0
1.500742746E1,-4.818836600E-3,1.131042126E0,1.331113381E0,1.746751942E0
1.501735146E1,-3.373476519E-1,1.152510763E0,1.603158013E0,2.003047706E0
1.502727446E1,-5.462183811E-1,1.141042619E0,2.110662417E0,2.460737414E0
1.503719746E1,-5.513570604E-1,1.044380543E0,2.832809923E0,3.069126486E0
1.504712046E1,-5.967595205E-1,9.693145734E-1,3.569369060E0,3.746476766E0
1.505704346E1,-7.913529570E-1,9.837741530E-1,4.112287712E0,4.301739335E0
1.506696646E1,-9.290098621E-1,9.241635436E-1,4.200925654E0,4.400558365E0
1.507688946E1,-7.572829856E-1,1.127747220E0,3.671947349E0,3.915161382E0
1.508681246E1,-2.209775354E-1,1.173933207E0,3.355634032E0,3.561913812E0
1.509673546E1,3.789565846E-1,1.320562080E0,3.070138466E0,3.363516389E0
1.510665846E1,8.953630829E-1,1.650945552E0,2.803769726E0,3.374673457E0
1.511658146E1,1.239840537E0,1.748794613E0,2.699882830E0,3.447441726E0
1.512650546E1,1.358215518E0,1.341728416E0,2.610019897E0,3.233757628E0
1.513642846E1,1.155829935E0,7.241121697E-1,2.548081511E0,2.890155819E0
1.514635146E1,7.833351088E-1,1.609785247E-1,2.198112790E0,2.339065586E0
1.515627446E1,4.406537730E-1,-3.237036127E-1,1.651624998E0,1.739777259E0
1.516619746E1,3.813817173E-2,-6.566581053E-1,1.112600008E0,1.292491070E0
1.517612046E1,-4.232968980E-1,-6.706499076E-1,6.523563087E-1,1.026898396E0
1.518604346E1,-7.821630344E-1,-4.712820733E-1,2.208119130E-1,9.394911952E-1
1.519596646E1,-9.999764952E-1,-2.830660486E-1,-9.229303658E-2,1.043358703E0
1.520588946E1,-1.071864796E0,-2.179298204E-1,-3.030880845E-1,1.135010984E0
1.521581246E1,-9.728892687E-1,-2.035088325E-1,-3.471562099E-1,1.052828005E0
1.522573546E1,-9.073121604E-1,-1.973119533E-1,-2.214065748E-1,9.545513264E-1
1.523565946E1,-7.212669146E-1,-2.907890511E-1,1.844387233E-2,7.778974295E-1
1.524558246E1,-1.561260666E-1,-4.902703214E-1,5.418527037E-1,7.472246578E-1
1.525550546E1,7.097992091E-1,-7.419912010E-1,1.181879573E0,1.565632519E0
1.526542846E1,1.266838740E0,-9.746788090E-1,1.668552688E0,2.310616205E0
1.527535146E1,1.431757118E0,-1.227748057E0,1.912273992E0,2.685904979E0
1.528527446E1,1.326363541E0,-1.517849475E0,1.817451450E0,2.714081252E0
1.529519746E1,9.962670216E-1,-1.818708601E0,1.405795773E0,2.505296531E0
1.530512046E1,5.812891035E-1,-2.021833271E0,7.362217534E-1,2.228840342E0
1.531504346E1,1.696268490E-1,-2.006875509E0,5.476677597E-2,2.014775912E0
1.532496646E1,-6.490964860E-2,-1.865828388E0,-6.244685984E-1,1.968626391E0
1.533488946E1,-1.027153878E-1,-1.731212035E0,-1.249842346E0,2.137697699E0
1.534481246E1,-6.646603122E-2,-1.602278007E0,-1.630645189E0,2.287075923E0
1.535473646E1,-6.021957865E-2,-1.512715035E0,-1.870165853E0,2.406128320E0
1.536465946E1,-5.335423484E-2,-1.443526394E0,-2.099863195E0,2.548733129E0
1.537458246E1,4.663346345E-2,-1.418907862E0,-2.287258855E0,2.692030325E0
1.538450546E1,6.531151677E-2,-1.389265110E0,-2.431716657E0,2.801351288E0
1.539442846E1,-1.397718430E-2,-1.342023993E0,-2.607717848E0,2.932817098E0
1.540435146E1,-1.709146982E-1,-1.233403484E0,-2.743101355E0,3.012490835E0
1.541427446E1,-4.273310383E-1,-1.064571856E0,-2.736803319E0,2.967493465E0
1.542419746E1,-4.925168216E-1,-9.074130249E-1,-2.709031384E0,2.899107148E0
1.543412046E1,-3.951105411E-1,-8.161833045E-1,-2.706935157E0,2.854779409E0
1.544404346E1,-1.365221067E-1,-6.921126974E-1,-2.702467300E0,2.793024844E0
1.545396646E1,7.624783829E-2,-4.803429186E-1,-2.774569316E0,2.816873789E0
1.546388946E1,1.697157267E-1,-2.783040762E-1,-2.832928621E0,2.851620795E0
1.547381346E1,8.264951617E-2,-8.154760838E-2,-2.894523191E0,2.896850955E0
1.548373646E1,-1.933335078E-1,1.113929665E-1,-2.871952354E0,2.880606978E0
1.549365946E1,-4.812065524E-1,2.161341405E-1,-2.610958959E0,2.663715525E0
1.550358246E1,-6.608012961E-1,2.482049489E-1,-2.271207079E0,2.378370376E0
1.551350546E1,-7.519677204E-1,2.959381092E-1,-1.975705172E0,2.134583271E0
1.552342846E1,-8.200104533E-1,4.343726939E-1,-1.763399203E0,1.992654895E0
1.553335146E1,-8.821933991E-1,6.689910525E-1,-1.557350925E0,1.910799865E0
1.554327446E1,-8.516833587E-1,9.512753284E-1,-1.237318779E0,1.777989611E0
1.555319746E1,-7.974071641E-1,1.236468594E0,-8.061497748E-1,1.677674053E0
1.556312046E1,-5.611220567E-1,1.459805920E0,-1.563346660E-1,1.571728925E0
1.557304346E1,-2.042267244E-1,1.505303689E0,5.896443361E-1,1.629517780E0
1.558296646E1,1.508091934E-1,1.385898283E0,1.311191332E0,1.913812993E0
1.559289046E1,4.656414105E-1,1.221600879E0,2.004110361E0,2.392820296E0
1.560281346E1,6.828844754E-1,1.027896073E0,2.697895362E0,2.966739107E0
1.561273646E1,6.641023417E-1,8.076571870E-1,3.220956869E0,3.386429565E0
1.562265946E1,3.758457197E-1,5.745380545E-1,3.466019524E0,3.533361759E0
1.563258246E1,3.762844071E-2,3.845240110E-1,3.312086309E0,3.334544997E0
1.564250546E1,-2.963613014E-1,4.697366542E-1,2.862821342E0,2.916201053E0
1.565242846E1,-5.746281016E-1,9.573973632E-1,2.158786172E0,2.430465984E0
1.566235146E1,-5.996533075E-1,1.506683047E0,1.359706850E0,2.116242097E0
1.567227446E1,-1.947184391E-1,1.886351531E0,7.018763781E-1,2.022094908E0
1.568219746E1,4.427342123E-1,2.296226145E0,7.371093607E-1,2.451937663E0
1.569212046E1,1.175782682E0,2.534236473E0,1.313078229E0,3.086906842E0
1.570204346E1,1.771134924E0,2.179635004E0,2.288880873E0,3.623079259E0
1.571196554E1,1.891296959E0,1.390611724E0,3.101301202E0,3.889585363E0
1.572188954E1,1.521600025E0,7.016664630E-1,3.604942936E0,3.975325903E0
1.573181254E1,1.070343935E0,1.864267766E-1,3.957281533E0,4.103713954E0
1.574173554E1,6.380651289E-1,-2.461619318E-1,4.205371876E0,4.260619136E0
1.575165854E1,2.966384594E-1,-5.874656636E-1,4.309683280E0,4.359642216E0
1.576158154E1,9.650153350E-2,-9.097486952E-1,4.094025103E0,4.194996636E0
1.577150454E1,-5.305646539E-2,-1.227732854E0,3.472263181E0,3.683307555E0
1.578142754E1,-2.137138318E-1,-1.318875743E0,2.586031694E0,2.910784560E0
1.579135054E1,-4.302847593E-1,-1.192688152E0,1.442923838E0,1.920853770E0
1.580127354E1,-5.363700619E-1,-9.964976943E-1,3.015023196E-1,1.171155048E0
1.581119654E1,-5.153991692E-1,-7.658443326E-1,-6.088553631E-1,1.105829417E0
1.582111954E1,-2.294144829E-1,-5.076418144E-1,-9.991616857E-1,1.143964724E0
1.583104254E1,2.617435920E-1,-4.385259712E-1,-7.609005117E-1,9.163974706E-1
1.584096554E1,8.735681713E-1,-6.649629056E-1,-2.648964107E-1,1.129365806E0
1.585088854E1,1.408526131E0,-1.041264270E0,1.917225999E-1,1.762082488E0
1.586081254E1,1.554981780E0,-1.314993484E0,3.878844059E-1,2.073072722E0
1.587073554E1,1.328742189E0,-1.286511697E0,3.016455764E-1,1.873941889E0
1.588065854E1,9.118897994E-1,-1.139766465E0,3.434829891E-2,1.460065206E0
1.589058154E1,4.242426851E-1,-1.083655121E0,-4.193207914E-1,1.236980276E0
1.590050454E1,7.314179733E-2,-1.118408048E0,-9.135718971E-1,1.445959852E0
1.591042754E1,-1.816925785E-1,-1.105439800E0,-1.469441546E0,1.847773742E0
1.592035054E1,-3.649716528E-1,-1.049752088E0,-2.087091122E0,2.364557697E0
1.593027354E1,-4.746427605E-1,-9.084099752E-1,-2.655650983E0,2.846572777E0
1.594019654E1,-5.091862102E-1,-6.924825338E-1,-3.187110261E0,3.300980835E0
1.595011954E1,-5.151540247E-1,-5.258605689E-1,-3.657355623E0,3.730705450E0
1.596004254E1,-5.031805350E-1,-3.676752591E-1,-4.011810912E0,4.059926420E0
1.596996554E1,-5.066134353E-1,-2.735163760E-1,-4.203210161E0,4.242457311E0
1.597988854E1,-5.728578570E-1,-2.389312649E-1,-4.257536641E0,4.302542565E0
1.598981254E1,-7.000881533E-1,-2.017730865E-1,-4.175594346E0,4.238681864E0
1.599973554E1,-7.713206886E-1,-1.823869354E-1,-4.042569605E0,4.119535121E0
1.600965854E1,-7.602666736E-1,-1.454234692E-1,-3.899485899E0,3.975568347E0
1.601958154E1,-7.087088495E-1,-5.336549073E-2,-3.750192450E0,3.816943741E0
1.602950454E1,-6.692290342E-1,4.675842941E-2,-3.577959790E0,3.640309068E0
1.603942754E1,-6.714679331E-1,1.137681055E-1,-3.376229680E0,3.444232748E0
1.604935054E1,-5.936463167E-1,8.117747962E-2,-3.211665058E0,3.267077927E0
1.605927354E1,-3.385419457E-1,8.232411861E-2,-2.961421770E0,2.981846208E0
1.606919654E1,8.048297659E-2,1.961161977E-1,-2.680542580E0,2.688911972E0
1.607911954E1,3.806329814E-1,4.151321384E-1,-2.445057079E0,2.509087539E0
1.608904254E1,4.850013953E-1,6.181427881E-1,-2.058454383E0,2.203306903E0
1.609896554E1,5.364295574E-1,6.994073913E-1,-1.613556701E0,1.838611595E0
1.610888854E1,4.179800248E-1,6.987326226E-1,-1.249925376E0,1.491726525E0
1.611881154E1,1.758669975E-1,7.193461043E-1,-8.739365458E-1,1.145492516E0
1.612873454E1,-1.483305587E-1,7.692263621E-1,-4.492140967E-1,9.030528531E-1
1.613865754E1,-4.600391932E-1,8.124364087E-1,2.207850158E-2,9.339038696E-1
1.614858154E1,-6.464636309E-1,8.329355773E-1,4.641899854E-1,1.152028318E0
1.615850454E1,-7.760991794E-1,8.388982755E-1,8.021783459E-1,1.396270157E0
1.616842754E1,-8.465195364E-1,9.194927877E-1,9.568547416E-1,1.574049970E0
1.617835054E1,-7.639729312E-1,1.107814062E0,1.006145015E0,1.680248323E0
1.618827354E1,-5.451297757E-1,1.286165249E0,1.124088618E0,1.793031718E0
1.619819654E1,-2.283112594E-1,1.352149909E0,1.583094462E0,2.094426767E0
1.620811954E1,-2.579031408E-2,1.393782084E0,2.294266743E0,2.684576973E0
1.621804254E1,8.334972024E-2,1.379729471E0,3.037097604E0,3.336849179E0
1.622796554E1,9.774658844E-2,1.379537682E0,3.654340214E0,3.907285632E0
1.623788854E1,-2.600081384E-2,1.493002317E0,3.825229184E0,4.106349994E0
