Time (s),Linear Acceleration x (m/s^2),Linear Acceleration y (m/s^2),Linear Acceleration z (m/s^2),Absolute acceleration (m/s^2)
0.103065322,1.917181015,0.351255655,-0.630279541,2.048466714
0.108038655,2.119704723,0.3910532,-0.372991562,2.187508497
0.113011989,2.257039547,0.408114195,-0.236821175,2.305833685
0.117985322,2.274123669,0.37257123,-0.186228752,2.311953488
0.122958655,2.203140736,0.308170795,-0.256464958,2.239324142
0.127931989,2.073983669,0.223577499,-0.41182518,2.126263186
0.132905322,1.944843292,0.108618021,-0.532841682,2.019438923
0.137878655,1.872172356,-0.038058281,-0.546711922,1.950736191
0.142851989,1.798604965,-0.19289875,-0.479227066,1.871322615
0.147661676,1.713998795,-0.332877159,-0.402590752,1.791836595
0.15263501,1.9248209,-0.851516724,-0.292086601,2.124930778
0.157608343,1.854709148,-1.115785241,-0.902303696,2.345010595
0.162581676,1.576349735,-1.20661509,-1.225445747,2.332920004
0.16755501,1.146763802,-1.006038785,-0.107235909,1.529274597
0.172528343,0.255638599,-0.525119782,1.755478859,1.850083215
0.177501676,-0.414040089,-0.392531395,2.043373108,2.121528635
0.18247501,-0.36388731,-0.757608175,1.306078911,1.553134329
0.187448343,-0.690394402,-0.890310049,1.088999748,1.566913164
0.192421676,-1.251095772,-0.704607248,0.74907589,1.619514339
0.19739501,-1.175684929,-0.567340374,0.06333065,1.306951003
0.202368343,-0.851095676,-0.449738026,-0.523571968,1.095790011
0.207341676,-0.678403378,-0.265676498,-0.816547394,1.094333035
0.21231501,-0.552609444,-0.054344893,-1.141692162,1.26956353
0.217288343,-0.441738606,0.159779072,-1.462169647,1.53577421
0.222261676,-0.370147705,0.373512268,-1.609496117,1.693221334
0.22723501,-0.319243908,0.558330774,-1.648062706,1.769112944
0.232208343,-0.303164482,0.716941357,-1.682778358,1.854091857
0.237181676,-0.328691006,0.845582962,-1.788186073,2.005157788
0.24215501,-0.409161568,0.903534174,-2.007117271,2.2388182
0.247128343,-0.461274624,0.860551596,-2.262699127,2.464372266
0.252101676,-0.417631626,0.71250701,-2.531273842,2.662598294
0.25707501,-0.386064529,0.502117634,-2.82689476,2.896981519
0.262048343,-0.464725971,0.282593966,-3.109573841,3.156783022
0.266860322,-0.626525879,0.078800917,-3.311380863,3.371051391
0.271833655,-1.375987053,-0.510019064,-3.451109409,3.750148793
0.276806989,-1.512985706,-0.606829882,-3.441819191,3.808344469
0.281780322,-1.457997084,-0.505860567,-3.359034061,3.696587647
0.286753655,-1.327116966,-0.333606958,-3.187560558,3.468872347
0.291726989,-1.161308765,-0.148205996,-2.952363014,3.176011718
0.296700322,-1.072514057,-0.093151569,-2.64081192,2.851815424
0.301673655,-1.088682175,-0.201011658,-2.284997463,2.539064389
0.306646989,-1.07243371,-0.316645145,-2.014111042,2.303697354
0.311620322,-0.942579746,-0.341586947,-1.898919106,2.147331365
0.316593655,-0.760008574,-0.303585053,-1.894072533,2.063319577
0.321566989,-0.53531003,-0.222883463,-1.947997093,2.032468091
0.326540322,-0.267174482,-0.09338665,-2.024197102,2.04388776
0.331513655,0.041030645,0.100313187,-2.093900681,2.096703677
0.336486989,0.360081196,0.330929756,-2.128801823,2.184255061
0.341460322,0.663639784,0.56663847,-2.07273531,2.248939435
0.346433655,0.982267618,0.806451559,-1.931557178,2.312169311
0.351406989,1.301324368,1.025924206,-1.76994133,2.424594378
0.356380322,1.585177898,1.172632217,-1.616203308,2.549503563
0.361353655,1.833904028,1.21624732,-1.479356766,2.651595363
0.366326989,2.061377048,1.153159618,-1.41310215,2.752437125
0.371300322,2.243171692,1.005725145,-1.430225372,2.844089823
0.376273655,2.373564482,0.838456154,-1.507879257,2.934368233
0.381246989,2.456810713,0.719635963,-1.597753525,3.01771621
0.386059801,2.387470722,0.611978769,-1.620685577,2.949772229
0.391033135,1.695351362,0.191378832,-1.572580338,2.320312698
0.396006468,1.331712961,-0.020231485,-1.567450523,2.056883533
0.400979801,1.07459116,-0.200049162,-1.526836395,1.877763352
0.405953135,0.884745598,-0.386071444,-1.472517967,1.76072005
0.410926468,0.723932743,-0.563707113,-1.45682621,1.721681426
0.415899801,0.547475576,-0.744513512,-1.441671371,1.712438676
0.420873135,0.30406332,-0.916187406,-1.446163177,1.738747193
0.425846468,0.042031288,-1.044994593,-1.534096718,1.85667258
0.430819801,-0.134670496,-1.121231437,-1.713999748,2.052581597
0.435793135,-0.201699019,-1.144885302,-1.944559097,2.265558415
0.440766468,-0.176869154,-1.139566779,-2.126030445,2.418656775
0.445739801,-0.077052832,-1.092417121,-2.10880518,2.376209501
0.450713135,0.076677322,-1.028434396,-1.927289009,2.185863592
0.455686468,0.239108563,-1.02568388,-1.786996365,2.07426043
0.460659801,0.343057632,-1.096304536,-1.68457222,2.038959474
0.465633135,0.377347231,-1.174234509,-1.479671478,1.926303533
0.470606468,0.378591299,-1.243579865,-1.218292236,1.78158868
0.475579801,0.370642662,-1.300414085,-1.019140244,1.693251196
0.480553135,0.357558966,-1.340961933,-0.928390503,1.669711426
0.485526468,0.328722954,-1.380253077,-0.939553261,1.7017396
0.490499801,0.309322834,-1.394956589,-1.036881447,1.76541996
0.495473135,0.334038973,-1.402016401,-1.200214386,1.875565674
0.500446468,0.409075499,-1.415561199,-1.378976345,2.018101096
0.505258551,0.51297617,-1.427656174,-1.532226562,2.156169042
0.510231885,0.758185387,-1.493063569,-1.831102848,2.481334629
0.515205218,0.787280083,-1.578606606,-1.995537758,2.663452588
0.520178551,0.726679802,-1.73991704,-2.093849182,2.817725898
0.525151885,0.621494293,-1.970266461,-2.023322105,2.891718767
0.530125218,0.576998472,-2.234760523,-1.914140224,2.998502064
0.535098551,0.57867837,-2.511586428,-2.017235756,3.272945941
0.540071885,0.535163641,-2.773008108,-2.31957674,3.6546423
0.545045218,0.452142239,-2.984889507,-2.505123615,3.922963459
0.550018551,0.445544243,-3.163258314,-2.4532938,4.027823644
0.554991885,0.515054464,-3.338078976,-2.260791779,4.064385786
0.559965218,0.561056852,-3.46287632,-1.990353107,4.033336422
0.564938551,0.546121359,-3.515146494,-1.741937637,3.960915317
0.569911885,0.44918251,-3.519888878,-1.6167202,3.899380315
0.574885218,0.241753101,-3.511231899,-1.607987404,3.86947251
0.579858551,0.012102604,-3.510887146,-1.64281702,3.876251125
0.584831885,-0.142033577,-3.487823009,-1.663607597,3.866868645
0.589805218,-0.272546768,-3.413574696,-1.661090374,3.806047185
0.594778551,-0.454408646,-3.316222668,-1.704696655,3.756302795
0.599751885,-0.68387413,-3.232815742,-1.853777409,3.788835195
0.604725218,-0.921847105,-3.173687458,-2.103140831,3.917307177
0.609698551,-1.160500526,-3.117912054,-2.414536476,4.110732714
0.614671885,-1.413399458,-3.049669981,-2.747715473,4.341442772
0.619645218,-1.68934536,-2.965191603,-3.046152115,4.574417088
0.62445652,-2.07612896,-2.825064659,-3.17656517,4.730947904
0.629429853,-2.577050686,-2.702386141,-3.530021906,5.138592779
0.634403187,-2.661570311,-2.867305994,-3.730559826,5.405781793
0.63937652,-2.636997938,-3.123045444,-3.819455624,5.594230263
0.644349853,-2.549191236,-3.405331612,-3.813808918,5.713125048
0.649323187,-2.512582541,-3.679018497,-3.766024351,5.833625591
0.65429652,-2.643609047,-3.956711769,-3.706154585,6.031568504
0.659269853,-2.984628916,-4.250709534,-3.59461832,6.316472289
0.664243187,-3.487127542,-4.525828838,-3.358955622,6.627651774
0.66921652,-4.014482975,-4.742282867,-2.946782351,6.876688634
0.674189853,-4.502170563,-4.876888275,-2.401359081,7.058335814
0.679163187,-4.909455299,-4.951615334,-1.751841545,7.189589317
0.68413652,-5.118948936,-4.966744423,-0.971347809,7.198312646
0.689109853,-5.086966038,-4.903398514,-0.074971676,7.065844692
0.694083187,-4.958148956,-4.820979118,0.746348858,6.955725509
0.69905652,-4.757594109,-4.778763771,1.315068245,6.870275786
0.704029853,-4.379870892,-4.762191772,1.690402508,6.687241594
0.709003187,-3.880064487,-4.735527515,1.981588364,6.434812641
0.71397652,-3.467341423,-4.58027935,2.363385677,6.211844117
0.718949853,-3.221247196,-4.271410942,2.933192253,6.101229526
0.723923187,-2.947983742,-4.021812439,3.334390879,5.998645344
0.72889652,-2.662003994,-3.912027121,3.462540865,5.863395833
0.733869853,-2.484920502,-3.858236551,3.530766726,5.790261899
0.738843187,-2.338376045,-3.857879162,3.485817671,5.701066478
0.743655322,-2.30030632,-3.957285881,3.344707489,5.669090659
0.748628655,-2.995445251,-4.654238701,3.243033171,6.414974223
0.753601989,-3.572568893,-4.906512737,3.680330992,7.09802451
0.758575322,-3.906304359,-5.066135883,4.296851635,7.706353256
0.763548655,-3.752903938,-5.164852619,5.045944691,8.137662341
0.768521989,-3.124394894,-5.125534534,5.999024868,8.486533278
0.773495322,-2.115993023,-4.889042854,7.066919327,8.849944366
0.778468655,-0.829771042,-4.468182087,8.027983665,9.225057879
0.783441989,0.59678936,-3.918447495,8.81951046,9.66923746
0.788415322,1.96499157,-3.304265976,9.515090942,10.26237405
0.793388655,3.129642487,-2.641668797,10.18311977,10.9758373
0.798361989,4.027227402,-1.922780275,10.80816936,11.69325316
0.803335322,4.67775631,-1.184756994,11.31563377,12.30156986
0.808308655,5.193796158,-0.48337841,11.58648968,12.70653046
0.813281989,5.632427216,0.152302265,11.53631783,12.8387718
0.818255322,5.948148727,0.708086014,11.13879585,12.64731719
0.823228655,6.036342621,1.194169641,10.4305172,12.11029159
0.828201989,5.926388741,1.576068044,9.472514153,11.28426331
0.833175322,5.733294487,1.838765383,8.38267231,10.32089719
0.838148655,5.604959488,2.020011663,7.370689392,9.477503896
0.843121989,5.477184296,2.200451851,6.66490078,8.902945499
0.848095322,5.195775032,2.547870636,6.498841763,8.701877224
0.853068655,5.391802788,2.830164909,6.270634651,8.740836896
0.858041989,6.280402184,2.806366205,5.5658288,8.848592718
0.862854905,7.162556648,2.704729795,4.8757658,9.076941839
0.867828239,8.02570343,2.818748236,4.18590641,9.480457248
0.872801572,8.056746483,3.017363071,4.161499977,9.556867994
0.877774905,7.831741333,3.131357193,4.193994045,9.419721664
0.882748239,7.444896698,3.190012217,4.178539276,9.113882557
0.887721572,7.013650894,3.284376144,4.058781624,8.743691085
0.892694905,6.540558815,3.450190544,3.880807877,8.351251055
0.897668239,6.123114586,3.632178783,3.607411861,7.981144986
0.902641572,5.950933456,3.732283592,3.144591808,7.696233329
0.907614905,6.029260635,3.774456024,2.546679497,7.555400621
0.912588239,6.28233242,3.841898918,1.832051277,7.588431974
0.917561572,6.606450081,3.98178792,1.066197038,7.786950227
0.922534905,6.891539574,4.200766563,0.321239948,8.077310971
0.927508239,7.087717056,4.450618744,-0.390923739,8.378338836
0.932481572,7.143205643,4.659820557,-1.037246704,8.591576991
0.937454905,7.049513817,4.759730339,-1.570864439,8.64975682
0.942428239,6.85076046,4.696722031,-2.033074856,8.551345513
0.947401572,6.598226547,4.434568882,-2.445812702,8.317691658
0.952374905,6.321497917,3.968149424,-2.762029648,7.958414009
0.957348239,6.004745483,3.380453587,-2.949196815,7.495478412
0.962321572,5.686994553,2.749221325,-2.963310719,6.977201111
0.967294905,5.483014107,2.172857285,-2.820009232,6.537369849
0.972268239,5.480741501,1.71589613,-2.544351101,6.281444854
0.977241572,5.788777351,1.482506275,-2.165927649,6.356021606
0.98205376,6.507548332,1.601685286,-1.710167289,6.916520311
0.987027093,9.368163109,2.96188736,-0.990191281,9.875005597
0.992000426,11.190238,4.023875713,-0.836982131,11.92113842
0.99697376,12.89705372,4.995710373,-0.969367921,13.86473191
1.001947093,14.21221352,5.642402649,-1.333944798,15.34936902
1.006920426,14.94731617,5.841033936,-1.846736193,16.15395842
1.01189376,14.96332836,5.55641222,-2.451220512,16.14878926
1.016867093,14.21761417,4.928423405,-3.101748943,15.36394339
1.021840426,12.84181881,4.163823605,-3.765167952,14.01521413
1.02681376,11.08118629,3.3425529,-4.458097935,12.40322485
1.031787093,9.067604065,2.472951174,-5.229703426,10.75577654
1.036760426,7.036610603,1.691246986,-5.83294487,9.295022916
1.04173376,5.324614525,1.106038094,-6.111708164,8.180942292
1.046707093,3.977888107,0.665162802,-6.21407795,7.408157673
1.051680426,2.923266411,0.366312504,-6.219278336,6.881794415
1.05665376,2.166383743,0.285126209,-6.133850574,6.511423681
1.061627093,1.44630146,0.252223253,-6.21257019,6.383684896
1.066600426,0.220071793,-0.061994314,-6.836774826,6.840596824
1.07157376,-1.573769569,-0.656414509,-8.168949127,8.345020102
1.076547093,-3.389043808,-1.287354469,-9.887954712,10.53159759
1.081520426,-4.549304008,-1.692758322,-11.24970436,12.25224248
1.08649376,-4.824845314,-1.777984142,-11.75605106,12.83141054
1.091467093,-4.15166378,-1.4071486,-11.20295048,12.03006562
1.096440426,-3.451706886,-0.978733778,-9.556752205,10.20802199
1.101251885,-3.673879147,-1.1042943,-7.378753662,8.316421075
1.106225218,-3.656151295,-0.960448027,-3.060526133,4.86381773
1.111198551,-3.296869755,-0.671058416,-1.200644016,3.572284372
1.116171885,-3.076526642,-0.534523487,0.099808156,3.124210813
1.121145218,-3.253917694,-0.673200369,0.761327386,3.408929229
1.126118551,-3.67205143,-0.970845223,1.009816885,3.930169499
1.131091885,-3.950853825,-1.107847452,1.005837202,4.224722523
1.136065218,-3.883740902,-0.893217564,0.636878729,4.035702606
1.141038551,-3.493926048,-0.318179369,0.199478746,3.514050243
1.146011885,-2.928545475,0.416692734,0.317743182,2.975058346
1.150985218,-2.465023994,0.901088357,1.054239273,2.828378328
1.155958551,-2.498391628,0.890330195,2.067321301,3.36280626
1.160931885,-3.018597126,0.481886745,3.048261642,4.316948284
1.165905218,-3.658403397,-0.003819466,3.454812527,5.031864425
1.170878551,-4.302158833,-0.432005405,3.243360519,5.405051965
1.175851885,-4.834899902,-0.723677516,2.69278717,5.581314268
1.180825218,-5.130136967,-0.808156967,1.921826124,5.537584187
1.185798551,-5.281774521,-0.595714927,1.394519329,5.495152639
1.190771885,-5.476368427,-0.288971067,1.471279144,5.677920196
1.195745218,-5.702319145,-0.18789959,2.04980588,6.062462704
1.200718551,-5.733926773,-0.179422259,2.897047281,6.426740351
1.205691885,-5.580228806,-0.189882994,3.677046776,6.685482934
1.210665218,-5.300314426,-0.13926661,4.034705639,6.662700489
1.215638551,-4.945453167,-0.100755215,3.837879658,6.260749069
1.220450791,-4.607132912,-0.172110319,3.207363367,5.616268814
1.225424124,-4.434775829,-0.595702648,0.855479479,4.555649618
1.230397458,-4.500316143,-0.702061653,-0.945747614,4.651900096
1.235370791,-4.493400097,-0.593138218,-2.276129246,5.071806554
1.240344124,-4.54196167,-0.374271631,-2.123617887,5.027847253
1.245317458,-4.824433327,-0.284240246,-0.795208216,4.89778578
1.250290791,-5.353895664,-0.458591461,0.631211042,5.410446589
1.255264124,-6.073045254,-0.48081708,2.117411852,6.449534609
1.260237458,-6.565395832,-0.347956896,3.671868086,7.530478848
1.265210791,-6.037858963,-0.446570635,4.384611607,7.475291642
1.270184124,-4.673346996,-0.702901125,3.86085701,6.102496128
1.275157458,-3.288778305,-0.938238859,2.654813528,4.329479156
1.280130791,-2.28972435,-0.977498293,1.465989232,2.889197975
1.285104124,-1.676401138,-0.852454662,0.7493397,2.02447764
1.290077458,-1.244123459,-0.743929625,0.465257406,1.522412205
1.295050791,-1.115560532,-0.77133131,0.451949358,1.429575291
1.300024124,-1.372323513,-1.015226603,0.664750218,1.83189785
1.304997458,-1.14666748,-1.497998238,0.888787866,2.085375002
1.309970791,-0.149800301,-1.950041056,0.922887802,2.162596158
1.314944124,1.064021111,-1.9579041,1.13697803,2.501649142
1.319917458,2.407454491,-1.511137962,1.379909039,3.159671505
1.324890791,3.714832306,-0.90955615,1.158476353,3.996165526
1.329864124,5.106935501,-0.340639591,0.508862853,5.143516982
1.334837458,6.702123642,0.173876524,-0.235700131,6.70852062
1.33965053,8.20946312,0.713507414,-0.833986759,8.282506351
1.344623864,9.520235062,1.335314035,-0.251081944,9.616703247
1.349597197,9.117614746,1.061166763,0.785723686,9.21272681
1.35457053,8.336789131,0.616728783,1.542426825,8.500675733
1.359543864,7.137278557,0.083487034,1.734081268,7.345389923
1.364517197,5.584079742,-0.478818655,1.426593781,5.783284853
1.36949053,3.95435524,-0.946630478,0.856466174,4.155306118
1.374463864,2.535802841,-1.333683491,0.114265919,2.867414236
1.379437197,1.511902809,-1.673560381,-0.612733126,2.337112821
1.38441053,0.852850914,-1.916498661,-1.207971334,2.420643828
1.389383864,0.421350479,-1.925129414,-1.672447205,2.584712583
1.394357197,0.150211334,-1.733483315,-2.092759132,2.721611404
1.39933053,-0.00381279,-1.771173954,-2.30164957,2.904249035
1.404303864,0.163678169,-1.916182041,-2.260071039,2.967568914
1.409277197,0.689049721,-1.887332439,-2.118883133,2.920013525
1.41425053,1.176829338,-1.804832935,-1.807187438,2.812165652
1.419223864,1.535981178,-1.704796314,-1.373650789,2.674413047
1.424197197,1.873667717,-1.644572258,-0.781605005,2.612691143
1.42917053,2.187178612,-1.602457047,-0.127031922,2.714361062
1.434143864,2.665042877,-1.478167057,0.246051908,3.05744549
1.439117197,2.663308144,-1.413751602,0.41244781,3.043356216
1.44409053,2.08164978,-1.544074535,0.599487186,2.660228724
1.449063864,1.919146538,-1.706460476,0.851653159,2.705631884
1.454037197,2.199866295,-1.708537579,1.112604022,2.999399954
1.458849489,2.53633976,-1.432804585,1.390935421,3.228103112
1.463822822,2.348770142,-0.009601116,1.615684032,2.850832905
1.468796155,2.593265533,0.601119041,1.616284966,3.114281189
1.473769489,2.918690681,1.08488512,1.536583543,3.472293191
1.478742822,3.13744545,1.375913143,1.226654291,3.638870935
1.483716155,3.035264015,1.369692326,0.598459125,3.383347164
1.488689489,2.096093178,1.189791679,-0.394301057,2.442270291
1.493662822,0.285250664,1.069264889,-1.497856021,1.862328651
1.498636155,-1.512518406,0.875530243,-2.41804409,2.983488287
1.503609489,-2.755156994,0.572970867,-3.067454815,4.162747256
1.508582822,-3.518323898,0.295450687,-3.313187599,4.841808157
1.513556155,-3.987596035,0.011670589,-2.922383547,4.943822806
1.518529489,-4.388464451,-0.30427742,-1.958212256,4.815163572
1.523502822,-4.869477749,-0.658884049,-0.623452783,4.953244907
1.528476155,-5.185441017,-1.004296303,0.627096772,5.318896499
1.533449489,-5.085799217,-1.27260685,1.43374002,5.435116587
1.538422822,-4.72204113,-1.432452679,2.035622597,5.337916491
1.543396155,-4.416121006,-1.48317337,2.473407269,5.274435657
1.548369489,-4.340239525,-1.430920124,2.68961072,5.302755638
1.553342822,-4.386666775,-1.267159939,2.819822788,5.36655758
1.558316155,-4.32886982,-0.983682632,2.663325787,5.176876441
1.563289489,-4.015182495,-0.603435516,2.024952412,4.53720808
1.568262822,-3.454719067,-0.199578285,1.208268404,3.665355079
1.573236155,-2.627817154,0.159843922,0.416095018,2.665353286
1.57804777,-1.761457443,0.48685503,-0.099589705,1.830212625
1.583021103,-0.722118378,1.102437496,-0.322420359,1.356752841
1.587994437,-0.556730747,1.274394989,-0.174089193,1.401548701
1.59296777,-0.604697228,1.225764751,0.051254272,1.367766414
1.597941103,-0.632995606,1.098747253,-0.203716636,1.284301145
1.602914437,-0.497716427,1.098828793,-0.823188543,1.460406017
1.60788777,-0.601411343,0.906413555,-1.026403546,1.495588639
1.612861103,-1.08793211,0.279505253,-1.01886487,1.516510826
1.617834437,-1.505675793,-0.398721695,-1.088419795,1.90018321
1.62280777,-1.61079073,-0.7853508,-0.874178052,1.993893156
1.627781103,-1.611142159,-0.9348979,-0.451570869,1.916697521
1.632754437,-1.668311119,-1.035374165,-0.042123795,1.963933824
1.63772777,-1.726187706,-1.138385296,0.389838636,2.104190875
1.642701103,-1.755313396,-1.255073071,0.786907792,2.29685816
1.647674437,-1.774062634,-1.444361687,1.025267243,2.506920787
1.65264777,-1.793653965,-1.655318737,1.067451477,2.663968341
1.657621103,-1.849416733,-1.813556194,1.028487325,2.786954341
1.662594437,-1.867005825,-1.876245499,0.954023302,2.81356862
1.66756777,-1.732293606,-1.794107914,0.832288444,2.629138338
1.672541103,-1.446502209,-1.501657009,0.777581453,2.225303424
1.677514437,-1.113378525,-1.045689583,0.83479178,1.74067681
1.68248777,-0.867144585,-0.663554668,0.910141587,1.421478891
1.687461103,-0.683598995,-0.448278427,0.972459734,1.270409016
1.692434437,-0.53115654,-0.344420433,1.033910275,1.212321393
1.697246833,-0.383048534,-0.253970623,1.057966113,1.153481492
1.702220166,-0.045841217,-0.127196312,0.727577806,0.740033636
1.707193499,0.052641392,-0.110059261,0.396885335,0.415213351
1.712166833,0.151430607,-0.011930943,0.138143599,0.205322259
1.717140166,0.245413303,0.116306305,0.053700984,0.27683685
1.722113499,0.253193378,0.181071281,0.13305065,0.338520563
1.727086833,0.267730236,0.322920322,0.367635101,0.557774669
1.732060166,0.2839818,0.51499033,0.651366353,0.87757554
1.737033499,0.280062199,0.725626946,0.861716509,1.16082929
1.742006833,0.279548645,0.963885307,1.017466784,1.429146944
1.746980166,0.201134682,1.176878929,1.120775819,1.637570643
1.751953499,0.104609966,1.373937607,1.157305598,1.799445481
1.756926833,0.021009445,1.562010765,1.158636451,1.94493122
1.761900166,-0.066530228,1.745609283,1.032914519,2.029406427
1.766873499,-0.096023083,1.910203457,0.662661314,2.024158516
1.771846833,0.01154995,2.049926758,-0.000131316,2.0499593
1.776820166,0.846593857,2.331442833,-1.47753334,2.88711822
1.781793499,2.179722309,2.757143974,-2.964474678,4.597949799
1.786766833,2.969168663,3.056768894,-3.241884947,5.354401613
1.791740166,3.147035599,3.178740978,-2.753989935,5.252874244
1.796713499,2.950887203,3.122564793,-1.989669561,4.734652166
1.801686833,2.40190506,2.883473396,-1.181308031,3.934343072
1.806660166,1.617254257,2.58091259,-0.529523969,3.091442505
1.811633499,0.730236054,2.28836441,-0.064368099,2.402914818
1.816446676,-0.126123667,2.027582169,0.202407986,2.041559605
1.82142001,-1.312090874,1.567822456,0.070517838,2.045634982
1.826393343,-1.497389793,1.438230515,-0.334759474,2.103032837
1.831366676,-1.482805967,1.374881268,-0.800721109,2.174894556
1.83634001,-1.403188705,1.284083366,-1.194700956,2.246134237
1.841313343,-1.333167791,1.175108433,-1.461541533,2.300938905
1.846286676,-1.249447823,1.076219559,-1.589697838,2.29052562
1.85126001,-1.178765416,0.989376068,-1.530699492,2.170574542
1.856233343,-1.088510513,0.899701119,-1.293557882,1.91510032
1.861206676,-0.927040815,0.789995194,-0.853071094,1.487019627
1.86618001,-0.785977364,0.674268723,-0.179300517,1.050974501
1.871153343,-0.758876562,0.545122147,0.647396088,1.13673809
1.876126676,-0.660722256,0.449899674,1.412276149,1.622802371
1.88110001,-0.309990645,0.433382988,1.911960959,1.984819822
1.886073343,0.108055592,0.769367218,2.08856678,2.22838801
1.891046676,0.072335005,1.512084961,1.375609636,2.045466977
1.89602001,-0.110631704,1.803450584,0.346510708,1.83976712
1.900993343,0.095960975,1.7210989,0.782287598,1.8929775
1.905966676,0.382372856,1.772339821,1.431029081,2.309814208
1.91094001,0.550617933,1.598900795,1.848850012,2.505575827
1.915913343,0.554039359,1.363994598,2.772847176,3.139446183
1.920886676,0.463004232,1.041748047,3.072642803,3.277307692
1.92586001,0.746594667,0.228748322,2.651680708,2.764261198
1.930833343,1.967081547,-0.742380142,1.80086422,2.768329826
1.935645791,3.787301064,-2.896046638,0.753121078,4.826792603
1.940619124,5.162661552,-8.599825859,-1.857483864,10.2009963
1.945592458,5.509636402,-11.07230949,-2.6191926,12.641689
1.950565791,5.483320236,-13.32071209,-2.964774609,14.70707516
1.955539124,4.736598969,-15.05369282,-2.567972183,15.98885607
1.960512458,2.891702175,-15.94173717,-1.289241791,16.25309417
1.965485791,-0.11210525,-15.08987522,0.630886376,15.10347375
1.970459124,-2.832817078,-12.10295296,1.972646713,12.58561313
1.975432458,-3.888052464,-8.139876366,1.623267412,9.165671623
1.980405791,-3.689517975,-4.600529671,0.1472857,5.89907698
1.985379124,-3.025551081,-1.754209518,-1.2049191,3.699059396
1.990352458,-2.304340839,0.799284935,-2.489431381,3.485127216
1.995325791,-1.852573395,2.565700531,-2.59675312,4.093650469
2.000299124,-1.577742934,3.405604362,-1.377345443,3.998061319
2.005272458,-1.134356141,3.939461231,-0.306909829,4.110998941
2.010245791,-0.53763938,4.019835472,0.574726462,4.096149879
2.015219124,0.040525436,3.339847565,1.116364002,3.521717287
2.020192458,0.486254931,2.130745411,1.353927851,2.570922109
2.025165791,0.740626335,0.759329796,1.467917204,1.811046666
2.030139124,0.811680079,-0.408482552,1.343337178,1.621800641
2.035112458,0.745755792,-0.969416618,0.93057251,1.536842697
2.040085791,0.527257204,-0.993992806,0.387835741,1.190142184
2.045059124,0.278889656,-0.820134163,-0.013940871,0.866368186
2.050032458,0.129719257,-0.625026703,-0.121892512,0.649879412
2.054844124,0.04201138,-0.408569336,-0.172687173,0.445549905
2.059817458,0.097880721,0.060537338,-0.268364549,0.292001603
2.064790791,0.146261215,0.258607864,-0.308643043,0.428405064
2.069764124,0.117821336,0.346302986,-0.343775868,0.501985531
2.074737458,0.069918036,0.407457352,-0.352339864,0.543188186
2.079710791,0.033686638,0.446904182,-0.29162252,0.534697888
2.084684124,-0.014718652,0.445601463,-0.188081861,0.483892642
2.089657458,-0.065545678,0.394153595,-0.115330488,0.415877883
2.094630791,-0.097176909,0.297502518,-0.087146014,0.324877712
2.099604124,-0.095202565,0.234597206,-0.043674707,0.256917998
2.104577458,-0.083416939,0.164768219,0.024386883,0.186283847
2.109550791,-0.073713422,0.07847023,0.064071238,0.125285151
2.114524124,-0.039947152,0.030641556,0.048978388,0.070239323
2.119497458,0.012836576,0.002034187,0.002955914,0.013328654
2.124470791,0.050863385,-0.009828568,-0.047605246,0.07035584
2.129444124,0.05021894,-0.012179375,-0.06469655,0.082800499
2.134417458,0.022960782,-0.007434845,-0.039119035,0.045964914
2.139390791,-0.025911331,-0.009916306,0.007556796,0.028754745
2.144364124,-0.077281833,-0.024392128,0.049018085,0.094711299
2.149337458,-0.109619498,-0.038868904,0.08076638,0.141599556
2.154310791,-0.127651334,-0.050935745,0.107788146,0.174664242
2.159284124,-0.150580764,-0.062980652,0.116004527,0.200245297
2.164257458,-0.180704355,-0.079769135,0.117455125,0.229810542
2.169230791,-0.222743988,-0.089335442,0.126515806,0.271296801
2.174043239,-0.267115355,-0.089295387,0.124318421,0.307862548
2.179016572,-0.311520815,-0.055819511,0.112968922,0.336040196
2.183989905,-0.315420151,-0.039168358,0.135238648,0.345417897
2.188963239,-0.307665467,-0.015434265,0.183874905,0.358756515
2.193936572,-0.324146152,-0.006146431,0.227573454,0.396103753
2.198909905,-0.359909415,-0.008858681,0.273595572,0.452181159
2.203883239,-0.414557338,-0.018706322,0.288471341,0.505394329
2.208856572,-0.473413825,-0.045185089,0.319940388,0.573170301
2.213829905,-0.469614625,-0.069143295,0.329826057,0.578017231
2.218803239,-0.386725307,-0.102550507,0.292005658,0.495318457
2.223776572,-0.27059722,-0.116767883,0.271198928,0.400507743
2.228749905,-0.190634012,-0.126172066,0.26270318,0.348243705
2.233723239,-0.16597724,-0.14274025,0.259338707,0.339381478
2.238696572,-0.184531212,-0.15212059,0.249095768,0.34531311
2.243669905,-0.234175324,-0.161476135,0.234497964,0.368648776
2.248643239,-0.29089427,-0.163633347,0.229857683,0.405252888
2.253616572,-0.340401888,-0.156229019,0.2328282,0.441010116
2.258589905,-0.387399316,-0.141655922,0.245825231,0.480181918
2.263563239,-0.429503083,-0.134262085,0.273539692,0.526614821
2.268536572,-0.454805136,-0.138820648,0.303944945,0.564359295
2.273509905,-0.46097815,-0.143369675,0.332113296,0.585964982
2.278483239,-0.45759356,-0.138352394,0.350863934,0.592991358
2.283456572,-0.447125554,-0.123804092,0.360173821,0.587344785
2.288429905,-0.434398651,-0.111694336,0.348065108,0.567738613
2.293243187,-0.407450199,-0.090079308,0.319271803,0.525418339
2.29821652,-0.344911814,-0.025529861,0.27666533,0.442899128
2.303189853,-0.327997446,0.01974678,0.262882263,0.420807966
2.308163187,-0.308739662,0.067306519,0.258743227,0.408409603
2.31313652,-0.277709842,0.119509697,0.254627526,0.395272692
2.318109853,-0.24210453,0.169181824,0.231385201,0.375201552
2.323083187,-0.204234242,0.204395294,0.210562527,0.357527118
2.32805652,-0.166611075,0.232329369,0.204074115,0.351258353
2.333029853,-0.141152859,0.241059303,0.199989706,0.343554362
2.338003187,-0.125445128,0.225851059,0.181591779,0.315785932
2.34297652,-0.117135406,0.191524506,0.17049548,0.281906098
2.347949853,-0.130450249,0.140522957,0.176141679,0.260364859
2.352923187,-0.162893295,0.08483696,0.18657428,0.261804311
2.35789652,-0.2024436,0.026871681,0.199362963,0.285396373
2.362869853,-0.244277239,-0.02619648,0.193056107,0.312455253
2.367843187,-0.285972953,-0.079146385,0.165345818,0.339682086
2.37281652,-0.322631359,-0.117627144,0.140146524,0.370901856
2.377789853,-0.349479914,-0.132110596,0.124677092,0.393870279
2.382763187,-0.380904913,-0.115483284,0.111755133,0.413417648
2.38773652,-0.393003941,-0.084535599,0.087084174,0.411317418
2.392709853,-0.388235927,-0.046467781,0.067460746,0.396783747
2.397683187,-0.378549337,-0.00845623,0.052911833,0.382322862
2.40265652,-0.35923636,0.017541885,0.038648337,0.36173495
2.407629853,-0.339842796,0.033949852,0.04860349,0.344975387
2.412442405,-0.308298469,0.045583725,0.0659457,0.31855087
2.417415739,-0.255467296,0.045222282,0.129218251,0.2898378
2.422389072,-0.245783925,0.030514717,0.166284651,0.298314383
2.427362405,-0.252878428,0.008651733,0.222557813,0.336978236
2.432335739,-0.262322187,-0.025115967,0.276431322,0.381913626
2.437309072,-0.271722436,-0.049266815,0.330210835,0.43046428
2.442282405,-0.290694356,-0.059051514,0.386329025,0.487073306
2.447255739,-0.321547031,-0.061658859,0.418295592,0.531192536
2.452229072,-0.366616488,-0.059485435,0.450076282,0.583536482
2.457202405,-0.392366052,-0.057311058,0.474487722,0.618364192
2.462175739,-0.422698379,-0.059905052,0.479618102,0.642102841
2.467149072,-0.450437307,-0.062480927,0.475017607,0.657601218
2.472122405,-0.482668996,-0.053072929,0.453638315,0.664510208
2.477095739,-0.53121388,-0.041244507,0.425125361,0.681631035
2.482069072,-0.53400898,-0.017457008,0.394231439,0.663994552
2.487042405,-0.495869041,0.006329536,0.353761762,0.609158069
2.492015739,-0.479029179,0.022941589,0.30628404,0.569038825
2.496989072,-0.457224965,0.053884506,0.263704926,0.530564319
2.501962405,-0.411152363,0.084253311,0.238827944,0.482890953
2.506935739,-0.358238697,0.119127274,0.218929261,0.436412984
2.511909072,-0.305723906,0.146585465,0.196638003,0.391945033
2.516882405,-0.244168639,0.169053078,0.179122582,0.346817195
2.521855739,-0.157147884,0.193674088,0.142549694,0.287272562
2.526829072,-0.073452353,0.213293076,0.117955856,0.254563879
2.531640791,-0.012273073,0.22315979,0.100022413,0.244857925
2.536614124,0.093095422,0.213867188,0.015949771,0.23379548
2.541587458,0.133112431,0.225942612,-0.020005818,0.26300041
2.546560791,0.174830437,0.233096123,-0.065059908,0.29855029
2.551534124,0.196839809,0.223492622,-0.116752654,0.319884425
2.556507458,0.192271471,0.209156036,-0.134668365,0.314404413
2.561480791,0.20170939,0.201996803,-0.149893105,0.322424145
2.566454124,0.217974782,0.206713677,-0.169536501,0.344943727
2.571427458,0.219703317,0.21134758,-0.179391652,0.353721235
2.576400791,0.211738348,0.220639229,-0.19367978,0.361976041
2.581374124,0.208434224,0.215561867,-0.219489276,0.371600978
2.586347458,0.212128282,0.210477829,-0.249542326,0.389320815
2.591320791,0.213147283,0.226729393,-0.279023647,0.417961933
2.596294124,0.199700713,0.245155335,-0.303123891,0.438024664
2.601267458,0.188470841,0.234858513,-0.317110151,0.437308389
2.606240791,0.210159183,0.222165108,-0.347223967,0.462697202
2.611214124,0.243013144,0.235556603,-0.381279826,0.509820171
2.616187458,0.246553183,0.229701042,-0.405159146,0.526977204
2.621160791,0.239989877,0.204746246,-0.425903976,0.530009776
2.626134124,0.232905626,0.191708565,-0.44820565,0.540264296
2.631107458,0.215900421,0.18337822,-0.46257174,0.542414213
2.636080791,0.212768078,0.189202309,-0.452453435,0.534585708
2.641054124,0.202053309,0.206690788,-0.425199926,0.514141613
2.646027458,0.188563824,0.226247788,-0.397701383,0.494884599
2.65084001,0.158329368,0.231280327,-0.374572158,0.467828045
2.655813343,0.063788772,0.28594017,-0.350516468,0.456828833
2.660786676,0.038609505,0.337641716,-0.326212913,0.471070575
2.66576001,0.022894263,0.403029442,-0.299248964,0.502500568
2.670733343,0.033120155,0.467730522,-0.250719667,0.531722801
2.675706676,0.054704189,0.517477036,-0.244915098,0.575116019
2.68068001,0.040113688,0.580884934,-0.24105984,0.630195414
2.685653343,0.004001617,0.64836216,-0.184501469,0.674114453
2.690626676,-0.027485609,0.70559597,-0.127999783,0.717638541
2.69560001,-0.08272016,0.769334793,-0.052798271,0.775568376
2.700573343,-0.152025104,0.839521408,0.019604802,0.85340036
2.705546676,-0.185456514,0.897104263,0.074905157,0.919130546
2.71052001,-0.204625726,0.954065323,0.106184661,0.981523056
2.715493343,-0.228580713,1.008057594,0.137246668,1.042720434
2.720466676,-0.257312417,1.02111721,0.213122875,1.074388848
2.72544001,-0.248149753,1.017321587,0.273855567,1.082367027
2.730413343,-0.25836122,1.011059761,0.26976499,1.077852267
2.735386676,-0.287657261,1.016613007,0.21344626,1.077871982
2.74036001,-0.297908902,1.02678299,0.192786753,1.086369989
2.745333343,-0.310543656,1.015443802,0.195606768,1.079733988
2.750306676,-0.335010052,1.004179001,0.16911304,1.072010457
2.75528001,-0.356922269,1.009634018,0.108676553,1.07636655
2.760253343,-0.293368578,1.031640053,0.016908288,1.072675259
2.765226676,-0.185513735,1.046280861,-0.105773449,1.067851585
2.77004001,-0.111703396,1.044329643,-0.217636883,1.072598651
2.775013343,0.008345604,1.113404274,-0.28580457,1.149531634
2.779986676,0.093866348,1.139092445,-0.292297661,1.179737434
2.78496001,0.165320396,1.153010368,-0.348615885,1.215852285
2.789933343,0.264855862,1.183460236,-0.447833717,1.292780644
2.794906676,0.396887302,1.239876747,-0.420107722,1.367956278
2.79988001,0.499155998,1.298326492,-0.28985858,1.420854105
2.804853343,0.521552324,1.363584995,-0.164801419,1.469197187
2.809826676,0.576333761,1.478601456,-0.078423917,1.58889055
2.81480001,0.65617013,1.614570618,-0.073619008,1.7443673
2.819773343,0.613182068,1.716578484,-0.078611732,1.824503698
2.824746676,0.493246079,1.784716129,-0.052520156,1.85236652
2.82972001,0.26605773,1.812011719,-0.083578944,1.833346291
2.834693343,-0.017622471,1.791427612,-0.207131267,1.803448586
2.839666676,-0.213950872,1.794812202,-0.341518402,1.839500105
2.84464001,-0.389497519,1.807899475,-0.41720438,1.895855565
2.849613343,-0.579975009,1.759027481,-0.455816746,1.907437442
2.854586676,-0.739877582,1.638777733,-0.514832854,1.870311247
2.85956001,-0.910059452,1.485424995,-0.555629969,1.828502197
2.864533343,-0.976043224,1.33245945,-0.535621882,1.736375351
2.869506676,-1.031031489,1.144037247,-0.526249647,1.627509092
2.87448001,-1.265746713,0.917910576,-0.608329892,1.677718637
2.879453343,-1.567108393,0.711545944,-0.83135426,1.911354559
2.884426676,-1.815075636,0.560731888,-1.155892372,2.223737167
2.889239228,-1.966773748,0.479847908,-1.446807265,2.488313536
2.894212562,-1.879608631,0.542154312,-1.756017566,2.628774923
2.899185895,-1.754957438,0.673224449,-1.885446548,2.662332709
2.904159228,-1.590948701,0.865606308,-2.055568457,2.739663069
2.909132562,-1.462323666,1.126162529,-2.202086687,2.873293985
2.914105895,-1.260176063,1.409054279,-2.215595961,2.912446245
2.919079228,-0.895420909,1.70687294,-2.026468277,2.796742304
2.924052562,-0.470217466,1.985839367,-1.681401491,2.644196179
2.929025895,-0.198435783,2.238777637,-1.272943854,2.582999831
2.933999228,-0.156769514,2.492071152,-0.883373737,2.648649555
2.938972562,-0.199261904,2.693171024,-0.508319378,2.747956343
2.943945895,-0.244403839,2.796806812,-0.133481979,2.810636764
2.948919228,-0.270111561,2.817742825,0.264622569,2.843001932
2.953892562,-0.430490255,2.696896553,0.69730413,2.818653212
2.958865895,-0.687869549,2.432720184,1.035045028,2.73177785
2.963839228,-0.851680517,2.054694176,1.13212204,2.495762042
2.968812562,-0.732666016,1.572403908,0.737263799,1.884890301
2.973785895,-0.156800985,1.030824661,-0.265636921,1.075987456
2.978759228,0.583156586,0.400979996,-1.465923548,1.627817068
2.983732562,1.223168373,-0.302931786,-2.241995335,2.57185762
2.988705895,1.693022966,-1.035226822,-2.326542854,3.057911541
2.993679228,1.899148703,-1.828858376,-1.85231781,3.222199563
2.998652562,1.725023031,-2.668754578,-1.159244776,3.382573562
3.003625895,1.298835278,-3.432361603,-0.573546886,3.714436065
3.008437718,0.876881361,-4.010000229,-0.223804951,4.110852881
3.013411051,0.589069843,-4.593587875,-0.192406893,4.635199377
3.018384385,0.7373631,-4.766825676,-0.445432901,4.84404189
3.023357718,1.02933979,-4.884133339,-0.502046347,5.016607361
3.028331051,1.386050224,-4.969128609,-0.165195942,5.161459489
3.033304385,1.759927034,-5.102614403,0.4079175,5.412985645
3.038277718,2.091532707,-5.240905762,1.067289948,5.742883431
3.043251051,2.533638954,-5.340924263,1.55420661,6.11231188
3.048224385,3.183489323,-5.41763401,1.461348057,6.451426252
3.053197718,3.984773874,-5.505501747,0.643360019,6.826630533
3.058171051,4.854897499,-5.674897194,-0.681381941,7.499251245
3.063144385,5.623373985,-5.990891457,-2.013645411,8.459780332
3.068117718,6.15409565,-6.455507278,-2.878391504,9.371851746
3.073091051,6.219297886,-7.093595505,-3.02306366,9.906446248
3.078064385,5.69813633,-7.941230774,-2.563930988,10.10473384
3.083037718,4.897968292,-8.905355453,-1.803232431,10.32216529
3.088011051,4.136908531,-9.898509979,-1.048603535,10.77933585
3.092984385,3.775030613,-10.84391117,-0.769635439,11.50798003
3.097957718,3.71052599,-11.77042389,-1.137442827,12.39373462
3.102931051,3.817350864,-12.72391319,-1.896944284,13.41896167
3.107904385,4.081295967,-13.73609352,-2.745653868,14.59026584
3.112877718,4.356289864,-14.80741692,-3.428143263,15.81104118
3.117851051,4.7537117,-15.82844448,-3.63106823,16.92105452
3.122824385,5.345423698,-16.73076439,-3.374868631,17.88523888
3.127636937,6.033330917,-17.4080677,-2.992622614,18.66541436
3.13261027,6.842328548,-17.86369324,-3.141298294,19.38547784
3.137583603,6.958551407,-17.19141388,-3.526730537,18.8786646
3.142556937,6.761562824,-15.7852354,-3.394953728,17.50480218
3.14753027,6.09837389,-13.87529564,-2.659080982,15.38781027
3.152503603,5.087215424,-11.88480473,-1.655010223,13.03331895
3.157476937,4.032993317,-10.07631779,-0.831492662,10.88524668
3.16245027,3.244235039,-8.442480087,-0.498597741,9.058097522
3.167423603,2.779960632,-6.923732758,-0.637181163,7.488141041
3.172396937,2.466686726,-5.563534737,-1.003350973,6.167996056
3.17737027,2.218837261,-4.316851616,-1.280627251,5.019806054
3.182343603,2.096555471,-3.095513344,-1.154216528,3.912794845
3.187316937,1.93403101,-1.973536491,-0.625901699,2.83320934
3.19229027,1.399529934,-0.97440815,-0.098300457,1.708162246
3.197263603,0.592921495,-0.002025604,0.104367971,0.602040427
3.202236937,-0.323629856,0.896123886,-0.022905469,0.953047199
3.20721027,-1.18607676,1.717967033,-0.301041722,2.109221403
3.212183603,-1.793026447,2.557013512,-0.361088872,3.143826826
3.217156937,-2.204224586,3.52813673,0.026021361,4.160172103
3.22213027,-2.517484903,4.602683544,0.469294548,5.267130473
3.227103603,-2.823167562,5.615728378,0.722484887,6.326821059
3.232076937,-3.089933872,6.603281021,0.812260091,7.335583006
3.23705027,-3.219902754,7.680103779,0.83198452,8.369227326
3.242023603,-3.268215895,8.750480652,0.876983345,9.381963897
3.246836989,-3.303926229,9.665961266,0.826612413,10.24841567
3.251810322,-3.390393257,10.97957993,0.619987011,11.50783758
3.256783655,-3.331303596,11.33463478,0.414715946,11.82131628
3.261756989,-3.208639145,11.50934505,0.165720105,11.94938709
3.266730322,-3.020584106,11.62574673,0.033919871,12.01178862
3.271703655,-2.851333141,11.7412262,-0.031086981,12.08252704
3.276676989,-2.699025631,11.87962341,0.006064951,12.18237368
3.281650322,-2.528531075,12.04087257,0.294514179,12.30702321
3.286623655,-2.359578133,12.20104122,0.739405572,12.44908577
3.291596989,-2.200182438,12.33858681,1.124129295,12.58352867
3.296570322,-2.029559851,12.46546078,1.421792507,12.70937919
3.301543655,-1.805531263,12.57919502,1.53228116,12.80015532
3.306516989,-1.552677512,12.6558466,1.394179583,12.82672979
3.311490322,-1.2884655,12.7216835,1.152125359,12.83856563
3.316463655,-1.016006708,12.79577446,0.900221586,12.86757602
3.321436989,-0.764675081,12.8541584,0.715394855,12.89674013
3.326410322,-0.566079199,12.87772465,0.662169874,12.90715719
3.331383655,-0.41338712,12.87132454,0.747386634,12.89963066
3.336356989,-0.292431951,12.85417747,0.929649472,12.89106835
3.341330322,-0.234375358,12.80959892,1.129641294,12.86144805
3.346303655,-0.239165902,12.74482918,1.318313837,12.81506233
3.351276989,-0.277931929,12.66948509,1.519320488,12.76328459
3.356250322,-0.376746178,12.56685734,1.730115175,12.69098655
3.361223655,-0.585271716,12.41073322,1.967182994,12.57929454
3.36603626,-0.984109402,12.01665401,2.184688091,12.25321619
3.371009593,-1.73317337,10.50103092,1.676423788,10.7743184
3.375982926,-1.93384099,9.821159363,1.407395124,10.10819832
3.38095626,-2.019344807,9.272986412,1.341201901,9.584615432
3.385929593,-2.04001832,8.830031395,1.483855247,9.183297642
3.390902926,-2.060285568,8.487445831,1.83360076,8.924326591
3.39587626,-2.156319141,8.252367973,2.29556489,8.832944445
3.400849593,-2.320216179,8.084130287,2.639508247,8.814962814
3.405822926,-2.503374577,7.951641083,2.727319241,8.771188655
3.41079626,-2.676473856,7.859713078,2.679240704,8.72450186
3.415769593,-2.850898027,7.813138008,2.622725964,8.720747478
3.420742926,-3.009360313,7.795210361,2.584306479,8.746438935
3.42571626,-3.137355804,7.789198875,2.578363419,8.784223271
3.430689593,-3.239508152,7.799928665,2.633440018,8.846937695
3.435662926,-3.303755045,7.827461243,2.727499723,8.923183381
3.44063626,-3.36365509,7.867043495,2.855251551,9.019812101
3.445609593,-3.395429134,7.909144402,2.975465298,9.106969743
3.450582926,-3.38494873,7.949007034,3.05421114,9.163667193
3.45555626,-3.377865314,7.979473114,3.112835169,9.207155264
3.460529593,-3.350565434,8.007694244,3.141661644,9.231440501
3.465502926,-3.272354126,8.004919052,3.138363123,9.199801827
3.47047626,-3.162712336,7.985429764,3.079543114,9.124331407
3.475449593,-3.038741589,7.975403786,2.939604759,9.026754241
3.480422926,-2.926980972,7.955560684,2.736120701,8.907554092
3.485234749,-2.852844954,7.901898384,2.46228075,8.754515914
3.490208083,-2.750672817,7.703658104,1.072421074,8.250008248
3.495181416,-2.747326851,7.348818779,-1.29926765,7.952423448
3.500154749,-2.751694918,6.547101021,-6.236330032,9.451358049
3.505128083,-2.601894617,5.359793663,-11.75696564,13.18042051
3.510101416,-2.253189802,4.362730026,-13.49889278,14.36420495
3.515074749,-1.501418233,3.47854948,-10.80102539,11.44625322
3.520048083,0.264349222,1.171684265,-5.146809578,5.285108642
3.525021416,1.536057234,-3.655338287,4.944241047,6.337703792
3.529994749,1.257435322,-9.930203438,11.11629868,14.95868243
3.534968083,0.602360725,-16.35911369,2.190459967,16.51609985
3.539941416,0.546308041,-21.9240799,-10.18272686,24.17957109
3.544914749,1.29385972,-25.82130241,-12.10423279,28.54691196
3.549888083,2.221860886,-28.82794952,-6.504920006,29.63614894
3.554861416,3.112383604,-31.73675156,-0.225525379,31.88979763
3.559834749,4.014318466,-34.2599411,3.053180218,34.62918172
3.564808083,5.497753143,-35.62945557,2.316659451,36.12547999
3.569781416,7.45069313,-35.1921196,-0.561521292,35.9765676
3.574754749,8.793123245,-32.427742,-2.2626791,33.67487468
3.579728083,9.228348732,-27.74068832,-2.024655581,29.30541655
3.584701416,9.132305145,-22.82915688,-1.30462575,24.62258007
3.589674749,9.108756065,-18.65707779,-1.973862886,20.85550583
3.594648083,9.527296066,-15.13139343,-4.138073921,18.35353081
3.599621416,9.681528091,-12.30355644,-5.979110718,16.75885594
3.60443402,8.854782104,-10.21257973,-6.379555702,14.94666122
3.609407353,5.288942814,-7.523358345,-3.704901695,9.914642376
3.614380687,4.403456211,-6.309494972,-2.00900054,7.952121514
3.61935402,4.212237358,-5.06673336,-0.384917975,6.600219114
3.624327353,4.672424316,-3.757715225,0.508602262,6.017528477
3.629300687,5.578874111,-2.54207325,0.225035191,6.13486867
3.63427402,6.578952312,-1.651037216,-0.446875572,6.797663951
3.639247353,7.531066418,-1.133696556,-0.855873346,7.663859893
3.644220687,8.447942734,-0.934425354,-0.848748684,8.541736445
3.64919402,9.500795364,-0.864571571,-0.553838015,9.556114959
3.654167353,10.38600349,-1.036474228,-0.342246294,10.44320257
3.659140687,10.51336479,-1.589853287,-0.328811884,10.63797866
3.66411402,9.949976921,-2.192435265,-0.416044116,10.19715185
3.669087353,8.836128235,-2.5496912,-0.393259406,9.205038857
3.674060687,7.119485378,-2.682409286,-0.094143987,7.608630279
3.67903402,5.224015713,-2.709184647,0.352923155,5.895301211
3.684007353,3.596557856,-2.67233181,0.784539819,4.548855728
3.688980687,2.202812195,-2.48511219,1.033199787,3.477882397
3.69395402,0.919690132,-2.147204399,1.096901655,2.580602626
3.698927353,-0.261212826,-1.703886032,1.064864159,2.026177541
3.703900687,-1.334135532,-1.274525642,0.963767409,2.081629374
3.70887402,-2.140657902,-0.761012077,0.816144228,2.414051995
3.713847353,-2.78062439,-0.172984123,0.518601596,2.833856581
3.718820687,-3.348870516,0.396303177,0.063634515,3.372838462
3.723634072,-3.876531601,0.955513001,-0.369143486,4.009584674
3.728607405,-4.857761383,1.929659843,-0.285633922,5.234789347
3.733580739,-4.934710979,2.585112095,0.07392782,5.571323211
3.738554072,-4.760338783,3.378507137,0.641264677,5.87250851
3.743527405,-4.510864258,4.144302845,1.240462542,6.249951179
3.748500739,-4.259083271,4.855967999,1.698516607,6.678710518
3.753474072,-4.029750347,5.573113441,1.940947771,7.146031034
3.758447405,-3.825846672,6.281172752,1.934892178,7.604869601
3.763420739,-3.673773527,6.908378124,1.73361659,8.014220281
3.768394072,-3.578346968,7.421341896,1.433173895,8.362707096
3.773367405,-3.491905928,7.870330334,1.046366692,8.673545401
3.778340739,-3.340632915,8.252951622,0.611991644,8.924436818
3.783314072,-3.146476269,8.511854172,0.247347117,9.078169141
3.788287405,-2.967388868,8.699731827,0.002245903,9.191884225
3.793260739,-2.703882933,8.852392197,-0.083106875,9.25649703
3.798234072,-2.302270651,8.943461418,0.049699664,9.235173109
3.803207405,-1.857370377,8.96572876,0.282035023,9.160439982
3.808180739,-1.449339271,8.924013138,0.483758211,9.053873028
3.813154072,-1.02703023,8.842227936,0.649123192,8.925309344
3.818127405,-0.577742815,8.734685898,0.808549762,8.79103391
3.823100739,-0.195959091,8.603801727,0.94243753,8.657481887
3.828074072,0.124346376,8.430421829,0.955328584,8.485288854
3.833047405,0.356359005,8.17395401,0.814625204,8.222173078
3.838020739,0.430819154,7.78432703,0.576711237,7.817541065
3.842833343,0.340337992,7.281477928,0.318795383,7.296395087
3.847806676,0.015798807,6.158342361,0.142257303,6.160005469
3.85278001,-0.208505869,5.558837414,0.15479672,5.56489983
3.857753343,-0.481786728,5.011471748,0.133826345,5.03635553
3.862726676,-0.702303946,4.521114826,0.096244097,4.576349313
3.86770001,-0.809472084,4.011271,0.027878106,4.092226445
3.872673343,-0.838590801,3.438984871,-0.073394239,3.540513831
3.877646676,-0.837070584,2.809148788,-0.190642059,2.937405058
3.88262001,-0.826047599,2.164901733,-0.256914496,2.331342791
3.887593343,-0.812270284,1.484769821,-0.269868076,1.713812479
3.892566676,-0.8026191,0.759237289,-0.243870914,1.131420215
3.89754001,-0.773028135,0.040951729,-0.195829988,0.798497919
3.902513343,-0.704450965,-0.660597801,-0.113857925,0.972421845
3.907486676,-0.608872891,-1.326345444,0.001848459,1.459425178
3.91246001,-0.534005046,-1.942017555,0.139268518,2.018907946
3.917433343,-0.472531557,-2.502892494,0.309910238,2.565891904
3.922406676,-0.386207938,-2.994727135,0.506272554,3.061675862
3.92738001,-0.306155324,-3.453507423,0.687429726,3.534544417
3.932353343,-0.239495516,-3.888858795,0.757528782,3.969185141
3.937326676,-0.128877878,-4.300954819,0.535682321,4.336101637
3.94230001,0.025815248,-4.69482708,-0.141060591,4.697016694
3.947273343,0.205577612,-5.02537632,-1.346620321,5.206731758
3.952246676,0.327185869,-5.259512901,-3.025535107,6.076461901
3.95722001,0.291120529,-5.419066429,-4.953374863,7.347581552
3.962031885,0.069732904,-5.560651779,-6.873083115,8.841096221
3.967005218,-1.304163694,-6.066874504,-9.274044991,11.1586612
3.971978551,-2.20756197,-6.199092865,-9.359085083,11.44091586
3.976951885,-2.63865447,-6.051182747,-9.386719704,11.47561836
3.981925218,-2.331314087,-5.607102394,-8.751667023,10.65205606
3.986898551,-1.448398352,-4.718722343,-6.401532173,8.083551973
3.991871885,-0.389392614,-3.354769707,-2.80060482,4.387424501
3.996845218,0.452126741,-1.770877838,0.785360932,1.989275924
4.001818551,0.977632999,-0.303890228,3.493352413,3.640278373
4.006791885,1.282660961,0.692616463,5.168709278,5.370334469
4.011765218,1.170421362,1.114340782,5.998131752,6.212022703
4.016738551,0.937292099,1.165667057,6.471598625,6.642204825
4.021711885,1.420188189,1.009269714,6.751369476,6.972556895
4.026685218,2.528922558,0.697192192,6.531407356,7.038523163
4.031658551,3.49489212,0.221903801,6.017282009,6.962125753
4.036631885,3.878826141,-0.418924332,5.58351326,6.811491037
4.041605218,3.963690042,-1.115581512,5.016838074,6.490302391
4.046578551,4.513341904,-1.762615204,2.975791931,5.686159083
4.051551885,6.689119816,-2.204726219,-2.657328129,7.527717742
4.056525218,9.729924202,-2.578811646,-10.17937851,14.31577596
4.061498551,10.7362566,-3.42132473,-12.6219883,16.92002533
4.066471885,8.906478882,-4.674601555,-8.518966675,13.18142856
4.071445218,6.07242012,-5.62635994,-4.524481773,9.434041955
4.076418551,3.770556211,-5.852632523,-3.667649031,7.869056551
4.081231155,2.247287273,-5.26206398,-3.873684168,6.909779045
4.086204489,0.927045345,-2.146950722,-1.888290644,3.00573652
4.091177822,0.753079653,-0.635640144,0.265904427,1.020721569
4.096151155,0.494530916,0.447585106,2.331062078,2.424612065
4.101124489,0.020396471,1.200927258,3.690262318,3.880808971
4.106097822,-0.584142923,1.755798817,4.116843224,4.513585112
4.111071155,-0.890045404,2.23342514,3.811433792,4.506372846
4.116044489,-0.839926958,2.697332859,3.227823257,4.289513356
4.121017822,-0.746857405,3.096307755,2.644856691,4.140070605
4.125991155,-0.693824053,3.350656509,2.161518812,4.04727741
4.130964489,-0.767741203,3.491197586,1.866709828,4.032678108
4.135937822,-0.949863195,3.587246895,1.784055471,4.117454833
4.140911155,-1.1353724,3.653108597,1.917708874,4.279238277
4.145884489,-1.250440359,3.693618298,2.144933224,4.450523088
4.150857822,-1.176166773,3.711034775,2.293298483,4.518225903
4.155831155,-0.918106556,3.707680702,2.362425327,4.49119909
4.160804489,-0.636971474,3.678754807,2.321036339,4.396155055
4.165777822,-0.435583592,3.61229229,1.985371709,4.144887149
4.170751155,-0.301348209,3.532240868,1.304341793,3.777412316
4.175724489,-0.202482939,3.476828098,0.373227358,3.50266065
4.180697822,-0.142926931,3.448359489,-0.657166004,3.513328683
4.185671155,-0.131127834,3.449287891,-1.607649803,3.807797179
4.190644489,-0.135072708,3.482135773,-2.237861633,4.141441641
4.195617822,-0.182450771,3.554339886,-2.415899277,4.301533404
4.200431208,-0.392467499,3.653889656,-2.276356697,4.322816231
4.205404541,-1.002202511,4.018404484,-1.511337757,4.408642227
4.210377874,-1.433741331,4.155361652,-1.10629344,4.532828018
4.215351208,-2.114248991,4.151494503,-0.728276849,4.715436626
4.220324541,-2.982196331,3.983509541,-0.302663088,4.985323275
4.225297874,-3.742392302,3.694824219,0.029961228,5.259099145
4.230271208,-4.08881855,3.407464504,0.200378418,5.326293551
4.235244541,-4.089550495,3.135652542,0.549297512,5.182515593
4.240217874,-3.949349642,2.874570847,1.420177937,5.086985897
4.245191208,-3.677112818,2.631277084,2.615554333,5.223590933
4.250164541,-3.234302521,2.38145113,3.57600832,5.377718641
4.255137874,-2.658896446,2.110169888,3.873438835,5.150347141
4.260111208,-2.086409569,1.75701046,3.37584877,4.340108935
4.265084541,-1.758975625,1.190035343,2.251002789,3.094704012
4.270057874,-1.764855504,0.433261871,1.035996675,2.091822151
4.275031208,-2.029685259,-0.299848557,0.740003705,2.181086172
4.280004541,-2.508219242,-0.805155754,1.954501987,3.280170357
4.284977874,-3.114142179,-1.026981354,4.030177116,5.195661633
4.289951208,-3.769831419,-1.034492493,5.494935036,6.743598052
4.294924541,-4.434796333,-0.959472656,5.415934563,7.065433708
4.299897874,-5.170392036,-0.902763367,3.827960014,6.496246099
4.304871208,-6.321137905,-0.955558777,0.942253947,6.462021316
4.309844541,-7.974555969,-1.223387718,-2.959944248,8.593688985
4.314817874,-9.643120766,-1.606106758,-6.735401154,11.87160418
4.31963053,-10.51159668,-1.864980698,-8.424578667,13.59946115
4.324603864,-7.568379402,-1.302349091,-2.903885365,8.210300247
4.329577197,-4.27359724,-0.502494812,2.103092909,4.78948162
4.33455053,-0.933346391,0.460700035,6.644768715,6.725795959
4.339523864,1.775768757,1.367478848,9.871933937,10.12316318
4.344497197,3.711427927,2.062072277,11.37921333,12.1455068
4.34947053,5.159190178,2.502436161,10.9437809,12.3549897
4.354443864,6.484558105,2.669262886,8.495720863,11.01597618
4.359417197,7.679223061,2.422986031,3.904420853,8.949068684
4.36439053,8.489573479,1.81076622,-2.436787844,9.016078258
4.369363864,8.43248558,0.891734123,-7.907272339,11.59426404
4.374337197,6.641856194,-0.502666473,-9.471101761,11.57880373
4.37931053,3.598828316,-2.030635834,-6.590107918,7.778468326
4.384283864,0.964845181,-3.161743164,-1.168839931,3.506241983
4.389257197,-0.324682474,-3.834225655,2.584809542,4.63550919
4.39423053,-0.122612238,-4.292049408,1.628391504,4.592208703
4.399203864,0.491189718,-4.991761208,-1.672239065,5.287280093
4.404177197,0.38616848,-6.124211311,-3.553856373,7.09119069
4.40915053,-0.220477581,-7.40496254,-3.287441492,8.1048968
4.414123864,-0.798496008,-8.707095146,-1.971064568,8.963046206
4.419097197,-1.154560804,-9.97597599,-0.49446702,10.05473049
4.42407053,-1.063721895,-10.98345661,0.579260111,11.05003917
4.429043864,-0.224160194,-11.7994585,0.535622835,11.8137361
4.434017197,1.300369263,-12.68367958,-0.626692772,12.76555646
4.438829072,3.277312279,-13.59896946,-1.99665308,14.13008739
4.443802405,7.30804491,-15.28685856,-1.632847548,17.02238985
4.448775739,8.77137661,-15.92436695,-0.384783983,18.18434957
4.453749072,9.883117676,-16.37893867,0.099047661,19.1299623
4.458722405,10.81751823,-16.66166687,-0.632370949,19.87535501
4.463695739,11.64764404,-16.77158737,-1.808298826,20.49935851
4.468669072,12.15010262,-16.74051476,-2.589267254,20.84644173
4.473642405,12.25626373,-16.5209198,-2.70462656,20.74781426
4.478615739,12.04571247,-16.07206726,-2.22121954,20.20753204
4.483589072,11.43262482,-15.37688923,-1.318372488,19.20655457
4.488562405,10.67181206,-14.2776432,0.071675658,17.82536971
4.493535739,9.991298676,-12.60292435,1.429801226,16.14633342
4.498509072,9.312812805,-10.60532856,2.044092417,14.26112864
4.503482405,8.676831245,-8.628824234,1.940265656,12.38986033
4.508455739,8.104221344,-6.751971245,1.309265137,10.62928476
4.513429072,7.570786476,-5.028977394,0.437994242,9.099409896
4.518402405,6.571053505,-3.46513176,-0.320953012,7.435650147
4.523375739,4.818986416,-2.029046059,-0.68898046,5.273931367
4.528349072,3.298132658,-0.780387878,-0.856281042,3.495697569
4.533322405,2.552526712,0.273696899,-1.319176197,2.886265485
4.538295739,2.009270668,1.169518471,-1.43057704,2.729742247
4.543269072,1.345033169,2.005622864,-0.488778651,2.463846965
4.548242405,0.710302353,2.882600784,0.780356288,3.069669795
4.553215739,0.107649088,3.738304138,1.641190052,4.084116911
4.558028343,-0.582603693,4.460209846,2.023270607,4.932192503
4.563001676,-2.957574368,5.228368759,1.932765245,6.310203445
4.56797501,-4.177595139,5.574408531,0.856494129,7.018540718
4.572948343,-4.886622429,6.178274632,0.105058059,7.877892699
4.577921676,-5.123393059,6.960931778,-0.159164235,8.644597209
4.58289501,-5.125557899,7.771534443,-0.381566823,9.317386147
4.587868343,-5.006318569,8.492835999,-0.550233841,9.873917469
4.592841676,-4.826187611,9.101013184,-0.795796275,10.332174
4.59781501,-4.552656174,9.648751259,-1.291450977,10.74676345
4.602788343,-4.284732819,10.11221886,-2.001937389,11.16349671
4.607761676,-4.175761223,10.42722511,-2.97946763,11.62072428
4.61273501,-4.173440456,10.64918423,-4.056268692,12.13573424
4.617708343,-4.146705627,10.84772587,-5.101109028,12.6842279
4.622681676,-4.058019638,11.03970242,-6.140917301,13.26851228
4.62765501,-3.912843227,11.20599174,-7.073834896,13.81751545
4.632628343,-3.764156342,11.258008,-7.735046387,14.16836475
4.637601676,-3.521654606,11.09025478,-7.803902626,14.01059237
4.64257501,-2.821003437,10.59939384,-7.10822773,13.07027589
4.647548343,-1.83861208,9.863924026,-5.674642086,11.52731774
4.652521676,-1.080662489,9.223011971,-3.583800554,9.953663026
4.65749501,-0.467716932,8.895957947,-1.171014309,8.984881826
4.662468343,0.098925352,8.822426796,0.455483437,8.834730667
4.667441676,0.394135833,8.837403297,0.162194744,8.847674679
4.67241501,0.359213471,8.826351166,-1.141146541,8.907060382
4.677228447,0.088651419,8.743112564,-1.819653749,8.930902314
4.68220178,-1.382392883,8.458161354,-0.725069881,8.60100168
4.687175114,-2.206344604,8.369047165,0.553068101,8.672646153
4.692148447,-2.879487753,8.373066902,2.033099174,9.084778001
4.69712178,-3.415182114,8.393891335,3.401347876,9.679361961
4.702095114,-3.755825758,8.429303169,4.409694672,10.22764812
4.707068447,-3.825330734,8.553495407,5.038277626,10.63859391
4.71204178,-3.670196533,8.761547089,5.337144852,10.89587836
4.717015114,-3.372992516,8.988690376,5.416414738,11.02321105
4.721988447,-3.016270638,9.222798347,5.338759422,11.07520881
4.72696178,-2.665513515,9.423072815,5.064548969,11.02492267
4.731935114,-2.37651825,9.570263863,4.664361,10.90843953
4.736908447,-2.17117238,9.664333344,4.225451469,10.76883321
4.74188178,-2.10433507,9.695757866,3.770463228,10.61378065
4.746855114,-2.151785851,9.686124802,3.333797455,10.46734931
4.751828447,-2.196102381,9.656992912,2.949697495,10.33349375
4.75680178,-2.246764898,9.610753059,2.623566866,10.21262111
4.761775114,-2.301350832,9.554558754,2.355980635,10.10625813
4.766748447,-2.319200754,9.512296677,2.14967227,10.02414939
4.77172178,-2.314678431,9.476742744,1.983388901,9.954909382
4.776695114,-2.299934864,9.435864449,1.864419699,9.889453933
4.781668447,-2.301137209,9.38008976,1.797766447,9.824117291
4.78664178,-2.342153788,9.307011604,1.771586537,9.759337489
4.791615114,-2.387063026,9.233362198,1.788143516,9.703118293
4.79642777,-2.398872852,9.158736229,1.817321301,9.640523688
4.801401103,-2.279452562,9.004170418,1.919191599,9.484423298
4.806374437,-2.286305666,8.894371986,2.073143482,9.414614731
4.81134777,-2.371274948,8.695380211,2.236047745,9.286145132
4.816321103,-2.462099552,8.412139893,2.376868248,9.081604178
4.821294437,-2.555794001,8.083104134,2.469388723,8.829866141
4.82626777,-2.658922195,7.715623856,2.570935965,8.556309395
4.831241103,-2.754258871,7.32661438,2.743283033,8.29402327
4.836214437,-2.767908812,6.794107437,2.861787319,7.874708993
4.84118777,-2.259731293,5.613211632,2.885748863,6.703885205
4.846161103,-1.110889554,3.525733471,2.921084881,4.711433857
4.851134437,-0.030740023,0.914543152,2.454975367,2.619969117
4.85610777,0.773509979,-2.209490776,0.04069531,2.341329384
4.861081103,1.642464638,-7.116229057,-7.76072216,10.65679194
4.866054437,2.605380297,-13.89751434,-15.28910637,20.82512149
4.87102777,3.670310736,-20.67427063,-11.11220169,23.7566343
4.876001103,4.774181366,-26.20173264,0.696330071,26.64223107
4.880974437,5.731777668,-30.15774345,6.613179684,31.40186158
4.88594777,6.389258385,-32.67212677,2.470357895,33.38252774
4.890921103,6.359519958,-34.11754608,-4.36059761,34.97806822
4.895894437,5.647768021,-34.81558228,-6.648070335,35.89176635
4.90086777,4.841203213,-34.83154297,-3.895169973,35.38143557
4.905841103,4.369520187,-34.0049324,0.901471019,34.29636693
4.910814437,4.25778389,-31.71203423,4.689729691,32.33845084
4.915626364,4.651708603,-27.54714966,5.53023386,28.47924391
4.920599697,6.644177437,-17.56158829,-0.332075834,18.77937037
4.92557303,7.73997879,-13.45319939,-4.349617004,16.11877829
4.930546364,8.384442329,-10.15943432,-6.201764107,14.55935633
4.935519697,8.490346909,-7.656876564,-5.752542496,12.79865206
4.94049303,7.989314079,-5.895838737,-4.570304394,10.93058718
4.945466364,6.864644051,-4.752819061,-3.632180214,9.105238057
4.950439697,5.515511036,-4.035181046,-2.825971365,7.39524592
4.95541303,4.064368725,-3.612776756,-1.766471624,5.717663073
4.960386364,2.75830102,-3.234111786,-0.573063016,4.289068055
4.965359697,1.857066393,-2.768026352,0.347062945,3.351286046
4.97033303,1.298000336,-2.253763199,1.185912132,2.858433314
4.975306364,1.096427917,-1.503596306,2.045696974,2.765471413
4.980279697,1.178874254,-0.495261192,2.790030956,3.069087958
4.98525303,1.355189085,0.604550362,3.22174263,3.547061343
4.990226364,1.569595575,1.705868721,3.125798702,3.89155957
4.995199697,1.817215681,2.764300823,2.516418457,4.15644003
5.00017303,1.931459904,3.71414423,1.309383273,4.386329818
5.005146364,1.997116566,4.561579704,-0.65222311,5.022138883
5.010119697,2.253619671,5.36562109,-2.859352112,6.484179655
5.01509303,2.629485369,6.078228951,-4.170544624,7.826397827
5.020066364,2.94123435,6.620741844,-4.20376873,8.375962847
5.025039697,3.072962284,6.969657898,-3.486232758,8.376935433
5.03001303,2.948455334,7.111281395,-2.708896637,8.160994604
5.034825739,2.631155252,6.957983494,-2.210184574,7.760246653
5.039799072,1.846441507,6.267701149,-1.807836533,6.77950565
5.044772405,1.56069541,6.021239758,-1.597395897,6.422053568
5.049745739,1.364909649,5.876296997,-1.372650146,6.186922755
5.054719072,1.17586565,5.837738037,-1.157324672,6.066403037
5.059692405,0.808089733,5.807707787,-0.955908239,5.94106382
5.064665739,0.260348797,5.729106903,-0.696650028,5.777176531
5.069639072,-0.25603199,5.662002563,-0.394070268,5.681471357
5.074612405,-0.747419357,5.640114307,-0.184633464,5.692417291
5.079585739,-1.365967274,5.568014145,-0.00636068,5.733122061
5.084559072,-2.091497421,5.438847542,0.173861772,5.829721431
5.089532405,-2.81327486,5.312633514,0.274404734,6.017797625
5.094505739,-3.511584282,5.203847885,0.22847344,6.281994675
5.099479072,-4.205043793,5.048009872,-0.0374901,6.570099122
5.104452405,-4.783561707,4.809292793,-0.512887955,6.802559358
5.109425739,-5.178311348,4.482898712,-1.096360087,6.936374754
5.114399072,-5.414189339,4.052004814,-1.617779016,6.953373149
5.119372405,-5.351956367,3.573767185,-1.917268753,6.71499578
5.124345739,-4.929747105,3.071675777,-1.978686571,6.136187672
5.129319072,-4.291415215,2.487941742,-1.884014606,5.306185984
5.134292405,-3.611384153,1.812768936,-1.574144006,4.336606515
5.139265739,-3.006039143,1.007781982,-1.075767994,3.348010249
5.144239072,-2.423826456,0.099287987,-0.622739554,2.504515391
5.149212405,-1.874967456,-0.879202843,-0.357200831,2.101450221
5.154025843,-1.476725578,-1.969760895,-0.25628981,2.475148659
5.158999176,-1.340812922,-4.267795563,-0.577572942,4.51059295
5.16397251,-1.593588591,-5.186605453,-0.813697279,5.486574887
5.168945843,-2.031056881,-5.913461685,-0.998690784,6.331793146
5.173919176,-2.616924763,-6.405123711,-1.147672415,7.013633647
5.17889251,-3.1720469,-6.5754776,-1.366325617,7.42735706
5.183865843,-3.482960463,-6.312502861,-1.661714792,7.398648661
5.188839176,-3.447580338,-5.614527702,-1.831105232,6.838251083
5.19381251,-3.062942982,-4.621102333,-1.612896204,5.773875704
5.198785843,-2.467174053,-3.571974754,-0.899425626,4.433386731
5.203759176,-1.910271525,-2.716013908,0.14882791,3.323855983
5.20873251,-1.37157166,-2.079309464,1.302251697,2.810799912
5.213705843,-0.837085128,-1.604070663,2.415252686,3.017813735
5.218679176,-0.366823673,-1.206253052,3.359742403,3.588519896
5.22365251,0.070137024,-0.835417748,4.06092453,4.146558821
5.228625843,0.421352983,-0.529606819,4.528065205,4.578361739
5.233599176,0.656074405,-0.295732498,4.787313461,4.841101271
5.23857251,0.794082999,-0.147815704,4.881513596,4.947887658
5.243545843,0.88170445,-0.075922012,4.822506905,4.903033728
5.248519176,0.988838792,-0.03440094,4.479288101,4.587265795
5.25349251,1.187445879,0.029364586,3.70501852,3.890764993
5.258465843,1.527674198,0.139035225,2.378129721,2.829950568
5.263439176,2.044891834,0.275075913,0.475534916,2.117400016
5.26841251,2.704807043,0.444373131,-1.436622977,3.094726837
5.27322527,3.386543512,0.627903938,-2.572470188,4.29890023
5.278198603,4.324760437,0.954738617,-2.860329628,5.272244706
5.283171937,4.567849636,1.125849724,-2.829361916,5.48981573
5.28814527,4.726621151,1.334996223,-2.813408852,5.660250152
5.293118603,4.70830822,1.570169449,-2.64434886,5.62371579
5.298091937,4.518023491,1.850470543,-2.214654207,5.361107232
5.30306527,4.232487679,2.199830532,-1.5754776,5.023478475
5.308038603,3.86828208,2.61345005,-0.854819655,4.745992421
5.313011937,3.549100876,3.081650257,-0.187637448,4.704029458
5.31798527,3.233487368,3.51101017,0.239096403,4.77910034
5.322958603,2.818229914,3.808201313,0.253761888,4.74438744
5.327931937,2.208220005,3.918373585,-0.07060492,4.498318819
5.33290527,1.399677992,3.846615791,-0.462688327,4.11942132
5.337878603,0.594393492,3.65541172,-0.766476274,3.781907501
5.342851937,-0.089864969,3.400002003,-0.996085525,3.544047926
5.34782527,-0.643313646,3.080533981,-1.158604622,3.353491722
5.352798603,-1.03708303,2.678017139,-1.261098027,3.136508448
5.357771937,-1.271174669,2.206956387,-1.329950452,2.873205481
5.36274527,-1.364899039,1.691345692,-1.350772023,2.558942105
5.367718603,-1.30644536,1.157538414,-1.352177382,2.207957955
5.372691937,-1.136724472,0.619878769,-1.355632782,1.874601945
5.37766527,-0.920421958,0.097518921,-1.325333238,1.616537878
5.382638603,-0.700460672,-0.385595322,-1.251865506,1.485427935
5.387611937,-0.493348241,-0.829425812,-1.114011884,1.473893531
5.392423916,-0.263662219,-1.219130516,-0.919798613,1.549782717
5.397397249,0.285652638,-1.734506607,-0.600246072,1.857526836
5.402370583,0.611113548,-1.854237556,-0.540226936,2.025710203
5.407343916,0.942206144,-1.865847588,-0.562381148,2.164581298
5.412317249,1.273729801,-1.779169083,-0.663945913,2.286625113
5.417290583,1.564636707,-1.627931595,-0.806238174,2.397554858
5.422263916,1.790739059,-1.441009521,-0.955523253,2.489232714
5.427237249,1.920738697,-1.223331451,-1.085186243,2.522579268
5.432210583,1.947373867,-0.98217392,-1.178323627,2.478987123
5.437183916,1.904085159,-0.720009804,-1.239597559,2.38339181
5.442157249,1.802864075,-0.453604698,-1.281075835,2.257704894
5.447130583,1.684327364,-0.202111244,-1.309986353,2.143331955
5.452103916,1.558007956,0.02013588,-1.359833121,2.068076488
5.457077249,1.428768396,0.217941284,-1.458988428,2.053661308
5.462050583,1.315750837,0.379346848,-1.563975811,2.078731496
5.467023916,1.223658085,0.50912571,-1.640905142,2.109293195
5.471997249,1.147781372,0.607316017,-1.62499392,2.080105782
5.476970583,1.081038952,0.666817665,-1.502081633,1.967114701
5.481943916,1.013880014,0.694893837,-1.29893446,1.788312293
5.486917249,0.94880271,0.703586578,-1.044603348,1.576850281
5.491890583,0.892888784,0.690541267,-0.815961123,1.392799403
5.496863916,0.83651185,0.665344238,-0.622611642,1.236964142
5.501837249,0.767542601,0.639917374,-0.471601009,1.104999276
5.506810583,0.683470726,0.614193916,-0.376916766,0.993193158
5.511623343,0.56190896,0.587760925,-0.291123629,0.863688342
5.516596676,0.279042244,0.541716576,0.002202272,0.609365467
5.52157001,0.119669437,0.509626389,0.232046604,0.572612833
5.526543343,-0.076545,0.44367218,0.446108639,0.633811532
5.531516676,-0.294891477,0.336784363,0.584647656,0.736340662
5.53649001,-0.51836431,0.227320671,0.652551472,0.863828495
5.541463343,-0.732394695,0.155972481,0.649932861,0.991535238
5.546436676,-0.881983161,0.141828537,0.600679815,1.076487747
5.55141001,-0.948252082,0.182394981,0.516667247,1.095168929
5.556383343,-0.981656313,0.253671646,0.412125528,1.094461453
5.561356676,-1.020601511,0.336470604,0.306105733,1.117381149
5.56633001,-1.053108215,0.423649788,0.219730437,1.156199603
5.571303343,-1.124628901,0.505660057,0.179042578,1.24600903
5.576276676,-1.208649635,0.546673775,0.081188679,1.329013829
5.58125001,-1.290315509,0.556344986,-0.231000662,1.424006728
5.586223343,-1.357290506,0.551384926,-0.772898197,1.656392006
5.591196676,-1.332947969,0.593860626,-1.416515112,2.033700026
5.59617001,-1.21982491,0.724206924,-2.050891399,2.493712897
5.601143343,-1.096780896,0.863337517,-2.572780609,2.927025805
5.606116676,-1.06877923,0.937242508,-2.686537027,3.039439712
5.61109001,-1.073591113,0.967722893,-2.226947784,2.654878888
5.616063343,-1.001449466,1.002763748,-1.559369683,2.107147355
5.621036676,-0.878902435,0.977805138,-1.121894836,1.728357718
5.62601001,-0.844588041,0.845159531,-0.878588438,1.48308504
5.630823551,-0.909168124,0.646438599,-0.533266664,1.236463859
5.635796885,-1.061070681,0.316737175,0.661856651,1.290057229
5.640770218,-1.28033185,0.222742081,1.428686738,1.931323245
5.645743551,-1.461800814,0.24467659,2.121297598,2.587785105
5.650716885,-1.36225462,0.389533043,2.583930492,2.946891656
5.655690218,-1.178442836,0.501665115,2.745249033,3.02932132
5.660663551,-1.00654161,0.511686325,2.804109335,3.022908876
5.665636885,-0.674144268,0.508430481,2.93201685,3.051179256
5.670610218,-0.124041081,0.522852898,2.811716557,2.86260569
5.675583551,0.475788832,0.473312378,2.32762146,2.422441182
5.680556885,0.893097639,0.359614372,1.71319747,1.965195018
5.685530218,1.21385622,0.20781517,1.051122069,1.619102119
5.690503551,1.514288187,0.024869919,0.447483301,1.579217696
5.695476885,1.603003263,-0.177257538,0.071968436,1.614378875
5.700450218,1.511039257,-0.355466843,-0.011772871,1.552332089
5.705423551,1.415518999,-0.454555512,0.13246572,1.492602397
5.710396885,1.263969898,-0.474459648,0.305249095,1.3841636
5.715370218,1.16628933,-0.36746788,0.360511541,1.274845879
5.720343551,1.217871189,-0.047798157,0.24144268,1.242493245
5.725316885,1.339387417,0.40989399,-0.072262764,1.402566805
5.730290218,1.435305834,0.868989945,-0.404787183,1.72600667
5.735263551,1.403174162,1.288801193,-0.588106036,1.993934541
5.740236885,1.265172243,1.67901516,-0.624501705,2.193115385
5.745210218,1.062526941,2.068480968,-0.545247316,2.388487315
5.75002303,0.834591627,2.462110996,-0.421425581,2.633653975
5.754996364,0.51843524,3.354817867,-0.268357039,3.405230318
5.759969697,0.394346476,3.82548666,-0.246096969,3.853624404
5.76494303,0.330231905,4.324025631,-0.277700305,4.345499767
5.769916364,0.320924521,4.866955757,-0.4128232,4.894964135
5.774889697,0.296715021,5.427848339,-0.486427188,5.457672471
5.77986303,0.197387219,5.994661331,-0.336380005,6.007335324
5.784836364,0.070338726,6.574540138,-0.076047182,6.575356168
5.789809697,-0.115847826,7.146044254,0.31006527,7.15370601
5.79478303,-0.48098731,7.663966656,0.863188148,7.727407552
5.799756364,-1.048645258,8.06638813,1.374246716,8.24953504
5.804729697,-1.746177197,8.317497253,1.26842618,8.592950619
5.80970303,-2.472110748,8.376342773,0.01472044,8.733536884
5.814676364,-3.225174189,8.151610374,-2.243674517,9.049009646
5.819649697,-4.011341572,7.494793415,-5.00812912,9.86631374
5.82462303,-4.801195145,6.248521328,-7.287018776,10.7329463
5.829596364,-5.485330582,4.593291283,-7.898692608,10.65722859
5.834569697,-6.003166199,2.960590363,-6.881813049,9.600127632
5.83954303,-6.344614983,1.534575939,-5.346079826,8.437394865
5.844516364,-6.591744423,0.218502045,-4.869848251,8.198430318
5.849489697,-7.002628803,-1.199838638,-6.61884594,9.710074381
5.85446303,-7.689423561,-2.907233238,-8.849075317,12.07830178
5.859436364,-8.295340538,-4.584783554,-6.446497917,11.46255863
5.864409697,-8.051237106,-5.692153931,2.068051815,10.07471457
5.869221728,-6.630859375,-6.329362869,10.83761978,14.19447544
5.874195062,-1.239967346,-7.471963882,15.92904663,17.63809201
5.879168395,1.44410038,-8.284563065,14.20716095,16.50947708
5.884141728,3.634025574,-9.869819641,10.94329929,15.17811849
5.889115062,5.776015282,-12.08123589,7.372420788,15.28630764
5.894088395,8.936192513,-15.03521538,-0.970176339,17.51726235
5.899061728,14.38003159,-19.13019943,-16.67831993,29.17046785
5.904035062,18.7454071,-23.84381866,-25.18812561,39.42536807
5.909008395,18.7360878,-27.83205795,-18.62613487,38.37443597
5.913981728,15.70526123,-30.62427902,-5.957923889,34.92847768
5.918955062,12.29207993,-32.53200912,5.081770897,35.14614121
5.923928395,10.49768829,-33.25452423,8.694669724,35.93970121
5.928901728,10.65148735,-32.38969421,4.627880096,34.40877429
5.933875062,12.08872986,-29.58563232,-1.587780237,31.99950118
5.938848395,13.55998516,-25.01472855,-5.779922485,29.03476099
5.943821728,14.64147282,-19.56385803,-6.921132088,25.39723089
5.948795062,15.48288059,-14.40942192,-5.476864815,21.84827407
5.953768395,16.03142738,-10.27801228,-2.14716959,19.16388628
5.958741728,15.71306229,-7.355931282,1.050001144,17.38138527
5.963715062,14.12629414,-5.639121056,2.79765749,15.46540526
5.968688395,11.76180744,-4.628067017,3.799600124,13.19833625
5.973661728,9.130017281,-3.859619141,4.487525463,10.88079778
5.978635062,6.528916836,-3.299312592,4.288883209,8.479784066
5.983608395,4.09825182,-2.757474899,2.810518026,5.683163501
5.98842126,2.036047935,-1.995750427,0.678197026,2.930607816
5.993394593,-0.670619249,-0.300236702,-2.233454943,2.351211015
5.998367926,-1.627316952,0.440649986,-2.116913557,2.706225393
6.00334126,-2.236068249,1.186923981,-1.097362995,2.759165688
6.008314593,-2.767750978,1.934001446,0.28758055,3.388732749
6.013287926,-3.419819117,2.517223358,1.226472378,4.419933339
6.01826126,-4.173474312,2.889375687,1.252706766,5.228350976
6.023234593,-4.797622681,3.364142418,0.673724651,5.898181287
6.028207926,-5.076755524,4.125473976,0.056985021,6.541882716
6.03318126,-5.080766678,5.046206951,-0.212006807,7.164031094
6.038154593,-4.934608459,5.992136955,-0.250636548,7.766523329
6.043127926,-4.732181549,6.936772346,-0.285958916,8.402031022
6.04810126,-4.443235397,7.863181591,-0.363722622,9.03904086
6.053074593,-4.085249901,8.766428947,-0.529042959,9.686043036
6.058047926,-3.768664837,9.536467552,-0.643234849,10.27427852
6.06302126,-3.529746532,10.08490658,-0.611416578,10.70225591
6.067994593,-3.3137784,10.43106842,-0.47224626,10.95496838
6.072967926,-3.092451572,10.60862064,-0.217516676,11.05230303
6.07794126,-2.897341967,10.72289371,0.094816715,11.10783644
6.082914593,-2.712346792,10.81930065,0.322809815,11.15877672
6.087887926,-2.442783594,10.93358803,0.483241797,11.21356596
6.09286126,-2.120919943,11.06083012,0.630906165,11.27999587
6.097834593,-1.781405687,11.19850826,0.630248725,11.35681324
6.102807926,-1.442073822,11.34176064,0.484326631,11.44332484
6.10762152,-1.155795217,11.46056843,0.312681556,11.52294498
6.112594853,-0.755944133,11.70231819,0.106495574,11.7271925
6.117568187,-0.592702985,11.83943176,0.220114335,11.85630177
6.12254152,-0.473502934,12.03944969,0.476210833,12.05816448
6.127514853,-0.459185958,12.26888657,0.788459659,12.3027679
6.132488187,-0.583658457,12.51342869,0.852321625,12.55599486
6.13746152,-0.862994969,12.69658756,0.290330529,12.72919431
6.142434853,-1.2929883,12.7204628,-0.84429574,12.81385297
6.147408187,-1.747159719,12.60924721,-1.873020053,12.86677451
6.15238152,-2.116219044,12.466012,-2.17293787,12.8297115
6.157354853,-2.403544903,12.32436943,-1.762094736,12.67959336
6.162328187,-2.646149397,12.16292381,-0.941701531,12.48301342
6.16730152,-2.864524841,12.01532745,0.08935973,12.35239173
6.172274853,-3.093413353,11.86025047,1.216121912,12.31721153
6.177248187,-3.36044836,11.67642975,2.299854517,12.36612129
6.18222152,-3.650011301,11.47614002,3.193183422,12.45876369
6.187194853,-3.961018562,11.2213707,3.771389961,12.48327724
6.192168187,-4.265886307,10.90286636,4.049088955,12.38811536
6.19714152,-4.56582737,10.54244423,4.103318691,12.1994727
6.202114853,-4.8360672,10.14986992,4.011285782,11.93724503
6.207088187,-4.88284874,9.71562767,3.773843527,11.50988826
6.21206152,-4.406709671,9.339930534,3.325132847,10.84941938
6.217034853,-3.534653187,9.149101257,2.814300299,10.20392636
6.222008187,-2.715900898,9.094835281,2.425792933,9.796765682
6.226821051,-2.122164726,9.095433235,2.175469875,9.589742334
6.231794385,-1.566652536,9.112435341,1.899767041,9.439279253
6.236767718,-1.470047951,9.088481903,1.794321775,9.379825953
6.241741051,-1.425301194,9.047507286,1.718089342,9.318835902
6.246714385,-1.417976737,9.015813828,1.656866074,9.275815985
6.251687718,-1.414633155,8.993361473,1.608307123,9.244911538
6.256661051,-1.403405547,8.96814537,1.582092404,9.214130176
6.261634385,-1.424991965,8.932983398,1.573333979,9.181730464
6.266607718,-1.460304976,8.883090973,1.601000071,9.143576821
6.271581051,-1.506898522,8.830428123,1.624428511,9.104173328
6.276554385,-1.576540947,8.796518326,1.612660766,9.081018157
6.281527718,-1.6381073,8.754961014,1.549548507,9.04067688
6.286501051,-1.646212578,8.6817379,1.3929075,8.945545267
6.291474385,-1.591472745,8.617358208,1.129594207,8.835588891
6.296447718,-1.498111367,8.552034378,0.80380851,8.719388613
6.301421051,-1.406922817,8.454436302,0.455150485,8.582778511
6.306394385,-1.348587036,8.257184982,-0.314664006,8.372502867
6.311367718,-1.311937928,7.660225868,-3.199725151,8.40467028
6.316341051,-1.126399994,6.08700943,-11.0733881,12.68622815
6.321314385,-0.66673255,3.382018089,-21.7881279,22.05912727
6.326287718,-0.26107645,0.880112648,-23.69859886,23.71637298
6.331261051,0.023286819,-0.239824295,-11.36811924,11.3706725
6.336234385,0.477976799,-1.723319054,15.90061092,16.00086617
6.341207718,0.943684459,-3.200984955,29.70395088,29.89082707
6.346019853,1.778277397,-3.471209526,15.06652927,15.56315747
6.350993187,3.635634899,-11.27052212,-5.77693367,13.17632242
6.35596652,4.008923531,-18.99461746,-14.18744659,24.04476245
6.360939853,5.305820465,-27.34200096,-19.71728325,34.12488837
6.365913187,6.790895462,-34.35025787,-15.34729004,38.2308225
6.37088652,7.394670963,-38.98769379,-1.170429707,39.70001677
6.375859853,7.313268661,-41.84045029,12.43444157,44.25745718
6.380833187,7.883014202,-43.21383667,15.29982376,46.51518247
6.38580652,9.651556015,-42.53622818,8.109940529,44.36501298
6.390779853,11.56115818,-39.20402908,-0.796571732,40.88093445
6.395753187,12.2964735,-33.80607605,-6.432061195,36.54347342
6.40072652,11.72206402,-27.91983223,-8.836714745,31.54380041
6.405699853,10.15764236,-22.70909882,-8.847995758,26.40393714
6.410673187,7.618094444,-18.5632019,-6.743266106,21.16836001
6.41564652,4.239193439,-15.6203661,-3.410622835,16.54082665
6.420619853,0.523846626,-13.56829357,-0.388652086,13.5839632
6.425593187,-2.48432374,-11.47701168,1.665891409,11.8603902
6.43056652,-4.17425108,-8.959428787,2.304294109,10.1491629
6.435539853,-4.233961105,-6.138685226,1.108472586,7.539137512
6.440513187,-3.048460007,-3.349228859,-0.997031927,4.63729609
6.44548652,-1.390424252,-1.07328701,-2.677716732,3.202404019
6.450459853,0.331793308,0.46890831,-3.25912571,3.309359786
6.455433187,1.847119808,1.211003304,-2.764505148,3.53848404
6.46040652,3.187300682,1.268982887,-1.649011374,3.806368573
6.465219437,4.291469574,0.884613514,-0.44582057,4.404316991
6.47019277,5.962675095,-0.003641129,0.890896201,6.028864203
6.475166103,6.429897785,-0.237911224,1.104551435,6.528416435
6.480139437,6.457375526,-0.271026611,1.129910827,6.561086235
6.48511277,6.070290089,-0.040677071,1.05821836,6.161972288
6.490086103,5.406202793,0.343318939,0.967998028,5.502900755
6.495059437,4.776540756,0.938378334,0.834849834,4.938913822
6.50003277,4.274334908,1.749150276,0.762853384,4.680962601
6.505006103,3.827129364,2.636644363,0.779305637,4.712338055
6.509979437,3.474605322,3.559809685,0.725708544,5.027104537
6.51495277,3.139292002,4.465616703,0.549803853,5.486271146
6.519926103,2.767694473,5.353660107,0.300329149,6.034236226
6.524899437,2.380632401,6.16620636,0.035899639,6.609901685
6.52987277,1.994477749,6.874475002,-0.175416112,7.160106065
6.534846103,1.542362928,7.399785042,-0.239905357,7.562622339
6.539819437,0.998212576,7.759252548,-0.176744402,7.825194377
6.54479277,0.420116425,8.008356094,-0.057406366,8.019573594
6.549766103,-0.170013905,8.178559303,0.182278335,8.182356775
6.554739437,-0.764411211,8.296520233,0.489771664,8.346043899
6.55971277,-1.359957695,8.393666267,0.619197846,8.525639232
6.564686103,-1.941690087,8.494196892,0.664191306,8.738574902
6.569659437,-2.346877098,8.638852119,0.689679742,8.978488525
6.57463277,-2.632802486,8.854054451,0.726533294,9.265731476
6.579606103,-2.954894543,9.075263023,0.891574144,9.585755325
6.584419801,-3.185361385,9.309153557,1.025458694,9.892342121
6.589393135,-3.771071911,9.561587334,1.010801554,10.32795505
6.594366468,-4.035965919,9.538054466,0.699627519,10.38041341
6.599339801,-4.410232544,9.404115677,0.415339053,10.39519357
6.604313135,-4.88863802,9.136136055,0.272742152,10.36543062
6.609286468,-5.177220345,8.755755424,0.114274077,10.17250815
6.614259801,-5.193043232,8.310833931,-0.138432652,9.80085824
6.619233135,-5.197392464,7.787075043,-0.427322507,9.37198115
6.624206468,-5.307538509,7.165487766,-0.687431693,8.943530751
6.629179801,-5.473100662,6.379323959,-0.980424523,8.462377756
6.634153135,-5.577256203,5.414390087,-1.24144721,7.871632483
6.639126468,-5.422589302,4.383086205,-1.353399515,7.102648074
6.644099801,-4.972649097,3.359284401,-1.345268607,6.14994133
6.649073135,-4.341890812,2.404752731,-1.12922585,5.090186887
6.654046468,-3.648976326,1.504779816,-0.737244725,4.015335641
6.659019801,-3.055021763,0.611307144,-0.301400006,3.130127211
6.663993135,-2.600720882,-0.256558418,0.065630525,2.614168835
6.668966468,-2.371202946,-1.129718781,0.285170764,2.642004977
6.673939801,-2.400366306,-2.01730442,0.29545778,3.14937626
6.678913135,-2.56370306,-2.808753014,0.127958149,3.805001992
6.683886468,-2.760909081,-3.477375984,-0.004859775,4.440133591
6.688859801,-2.813399076,-4.027738571,0.007931501,4.913039311
6.693833135,-2.610583305,-4.478951454,0.167112574,5.186914105
6.698806468,-2.09074831,-4.917265892,0.34940657,5.354700487
6.703619385,-1.177306652,-5.381465912,0.331092328,5.518681767
6.708592718,1.410528421,-6.52973938,-0.255120754,6.68522052
6.713566051,2.77385211,-7.268818855,-0.571110725,7.801035222
6.718539385,3.90112114,-8.108710289,-0.752670944,9.029753166
6.723512718,4.949828148,-9.008854866,-0.701862574,10.30305177
6.728486051,5.848735809,-9.873496056,-0.224108249,11.47797279
6.733459385,6.297948837,-10.50395393,0.654468834,12.2648089
6.738432718,6.388250351,-10.69204426,1.759102702,12.57871199
6.743406051,5.960753918,-10.26283741,2.929275513,12.22444575
6.748379385,4.845475197,-9.108328819,3.961442471,11.05139404
6.753352718,3.366925716,-7.283391953,4.760345936,9.329784592
6.758326051,2.128956556,-5.044404984,5.186933041,7.542065501
6.763299385,1.403244972,-2.65031147,5.051259041,5.874390627
6.768272718,1.046295404,-0.271644592,4.40364933,4.534385546
6.773246051,0.969259024,1.890029907,3.330777645,3.950412108
6.778219385,0.921417713,3.760330677,1.98854959,4.352404723
6.783192718,0.798319817,5.305687428,0.537732422,5.392289844
6.788166051,0.651885033,6.578932285,-0.935388684,6.676994541
6.793139385,0.326159239,7.589873314,-2.154051065,7.896359463
6.798112718,-0.154785395,8.145202637,-2.900116444,8.647482865
6.803086051,-0.669039488,8.087646484,-3.128618479,8.69746475
6.808059385,-1.123472929,7.339029312,-2.8242383,7.943542323
6.813032718,-1.413013935,6.041257858,-2.105939388,6.551975702
6.818006051,-1.459236503,4.524896145,-1.281302452,4.924001652
6.822818239,-1.333065391,3.10551548,-0.583990574,3.429626032
6.827791572,-0.95418787,0.841292381,0.495437115,1.365175922
6.832764905,-0.717853189,-0.052661896,0.925953984,1.172807425
6.837738239,-0.435149908,-0.811918259,1.234330177,1.540174564
6.842711572,-0.125586271,-1.443910599,1.449179292,2.04957809
6.847684905,0.181820631,-1.939323425,1.570272803,2.501957387
6.852658239,0.415344,-2.305510521,1.571112752,2.820688689
6.857631572,0.505771399,-2.525897026,1.430045366,2.946352023
6.862604905,0.43441534,-2.583861351,1.113648176,2.846975312
6.867578239,0.237662315,-2.450810432,0.541366577,2.521117396
6.872551572,-0.024247885,-2.102956772,-0.25211823,2.118154561
6.877524905,-0.341413021,-1.633706093,-1.098021865,1.997801408
6.882498239,-0.663245201,-1.198505402,-1.880548716,2.326536668
6.887471572,-0.946457148,-0.861779213,-2.453285694,2.767138457
6.892444905,-1.133667469,-0.63534832,-2.64913106,2.950722757
6.897418239,-1.167733788,-0.497616768,-2.438096046,2.748733705
6.902391572,-1.106265664,-0.429385185,-1.931417227,2.266840943
6.907364905,-1.028138518,-0.41860199,-1.26650393,1.684140328
6.912338239,-0.954730272,-0.424514771,-0.597078323,1.20342229
6.917311572,-0.890618324,-0.399241447,-0.019230604,0.976199032
6.922284905,-0.797555924,-0.328485489,0.48846373,0.991259291
6.927258239,-0.680486918,-0.231473923,0.921098709,1.168360156
6.932231572,-0.561075449,-0.093929291,1.242746353,1.366765111
6.937204905,-0.448956966,0.064944267,1.450941324,1.520200922
6.942017926,-0.375304222,0.209174156,1.5823493,1.639645204
6.94699126,-0.206492662,0.326769829,1.564190865,1.611245109
6.951964593,-0.08588028,0.25045681,1.313112855,1.339540744
6.956937926,0.0558815,0.104813576,0.927970469,0.935541458
6.96191126,0.202135563,-0.076555252,0.502533257,0.547045854
6.966884593,0.283802986,-0.252873421,0.123128384,0.399561886
6.971857926,0.232070208,-0.421614647,-0.238661453,0.537191568
6.97683126,0.092759371,-0.561191559,-0.66141057,0.872355552
6.981804593,-0.083754778,-0.652486801,-1.142354727,1.318229195
6.986777926,-0.295017958,-0.733805656,-1.68343997,1.859966793
6.99175126,-0.502808332,-0.86493969,-2.290995836,2.49991976
6.996724593,-0.61888051,-1.074569702,-2.923365116,3.175496297
7.001697926,-0.588523626,-1.331558228,-3.424314737,3.720932516
7.00667126,-0.390705347,-1.561825752,-3.547534704,3.895760879
7.011644593,-0.047437668,-1.681845665,-3.14613533,3.567775594
7.016617926,0.366591692,-1.644091606,-2.322557926,2.869094282
7.02159126,0.700415373,-1.417777061,-1.322766185,2.061645913
7.026564593,0.877638102,-1.027059555,-0.361096233,1.398388521
7.031537926,0.874665022,-0.553405762,0.444193631,1.126323586
7.03651126,0.751852989,-0.075708389,1.009037614,1.26062349
7.041484593,0.593168736,0.386947632,1.338126659,1.513988301
7.046457926,0.42991066,0.813127518,1.486640215,1.74817009
7.05143126,0.283807278,1.164690971,1.455058813,1.885271275
7.056404593,0.164549351,1.437000275,1.258545518,1.917285346
7.061218395,0.089217663,1.625489235,0.954413116,1.887082256
7.066191728,0.150185108,1.813714027,0.318114877,1.847514875
7.071165062,0.246791363,1.836669922,0.070099555,1.854501638
7.076138395,0.355022192,1.799753189,-0.102912344,1.837319583
7.081111728,0.482033491,1.693473816,-0.241472259,1.777222187
7.086085062,0.644450665,1.498760223,-0.350360304,1.668637531
7.091058395,0.823071003,1.237232208,-0.422228038,1.54481906
7.096031728,1.015424728,0.944818497,-0.485672891,1.469573927
7.101005062,1.185687542,0.674175263,-0.531060696,1.463691461
7.105978395,1.314790726,0.453977585,-0.546229422,1.494368389
7.110951728,1.417110682,0.272188187,-0.533541143,1.538491223
7.115925062,1.507097721,0.143122673,-0.514288843,1.598849791
7.120898395,1.563460827,0.083506584,-0.462254852,1.632501962
7.125871728,1.602940083,0.093236923,-0.327177376,1.638644277
7.130845062,1.694635391,0.167347908,-0.149835259,1.709457527
7.135818395,1.818948746,0.274540901,0.04578457,1.840120505
7.140791728,1.927588224,0.393105507,0.238120377,1.981622975
7.145765062,2.020056248,0.508502007,0.439265966,2.128886123
7.150738395,2.076843977,0.618192673,0.654043317,2.263452174
7.155711728,2.076219082,0.710123062,0.84661299,2.351959607
7.160685062,2.010880232,0.777046204,1.028988004,2.388777181
7.165658395,1.892801046,0.835680008,1.2344594,2.409345738
7.170631728,1.698257923,0.874092102,1.443590164,2.394174083
7.175605062,1.417953253,0.92580986,1.651364446,2.365316016
7.180418083,1.094181776,0.983361244,1.833070874,2.350400376
7.185391416,0.330961704,1.133022308,1.99952054,2.321929713
7.190364749,-0.12140727,1.229296684,2.039487123,2.384411414
7.195338083,-0.60695529,1.322690487,2.058083773,2.520637551
7.200311416,-1.129898787,1.403834343,2.088604689,2.758566961
7.205284749,-1.618194342,1.494382858,2.142615795,3.072870889
7.210258083,-2.040453434,1.577748775,2.243565559,3.418527144
7.215231416,-2.441952229,1.654075146,2.395745754,3.799828022
7.220204749,-2.805916548,1.73301506,2.531729937,4.157663448
7.225178083,-3.077264309,1.812253952,2.551075935,4.388827684
7.230151416,-3.313195229,1.884718895,2.368365049,4.487603029
7.235124749,-3.587380171,1.938574314,1.913305759,4.504231987
7.240098083,-3.86103797,1.952352524,1.109233141,4.466507891
7.245071416,-4.100132942,1.935656548,-0.043400466,4.534284951
7.250044749,-4.294672966,1.953009129,-1.36975503,4.91270693
7.255018083,-4.439585209,2.01146841,-2.490685225,5.473521251
7.259991416,-4.610943317,2.056004524,-3.276963234,6.018840496
7.264964749,-4.872568607,2.029363155,-3.889341593,6.556463809
7.269938083,-5.132931232,1.924491405,-4.53862524,7.11686513
7.274911416,-5.200563431,1.817885876,-5.282466412,7.632497654
7.279884749,-4.923362255,1.766467094,-6.039690971,7.989854124
7.284858083,-4.279428005,1.707123756,-6.934498787,8.325565987
7.289831416,-3.212518454,1.617241383,-7.51184988,8.328483243
7.294804749,-1.911320329,1.584508896,-6.731983662,7.175194622
7.299616989,-0.772387981,1.628160477,-4.445888996,4.797230315
7.304590322,0.01142478,1.515215397,0.185787082,1.526605733
7.309563655,-0.452702522,1.163217068,1.567195177,2.003525454
7.314536989,-0.708262444,0.601529121,2.02263236,2.225873904
7.319510322,-0.475128412,-0.061718941,1.785382628,1.848552776
7.324483655,-0.264158011,-0.765555382,1.660135269,1.84713389
7.329456989,-0.535101414,-1.402751923,2.454648018,2.877384815
7.334430322,-0.708181143,-1.694107056,4.668372631,5.016495018
7.339403655,-0.14751935,-1.555727005,6.752828598,6.931287222
7.344376989,1.044704676,-1.103650093,7.222429276,7.380578299
7.349350322,2.538779974,-0.593177795,6.797097683,7.27995883
7.354323655,3.906017065,-0.495059013,5.458440781,6.730277
7.359296989,5.509518623,-1.005655289,1.990443945,5.943736629
7.364270322,7.580662727,-2.120308876,-4.025937557,8.841398664
7.369243655,9.372161865,-3.824793816,-9.161352158,13.65272277
7.374216989,10.03233814,-6.088549614,-9.095212936,14.84726047
7.379190322,8.920545578,-9.093265533,-4.494246483,13.5078445
7.384163655,7.019507408,-12.17310047,0.100986123,14.05233281
7.389136989,5.709313869,-14.39827347,1.557346702,15.56701232
7.394110322,5.048688889,-15.84647369,0.5264467,16.63962542
7.399083655,5.158251286,-16.77787018,-1.378468513,17.60694918
7.404056989,5.759043217,-17.60619926,-2.283539295,18.6643881
7.409030322,5.147568703,-18.58037567,-2.690011024,19.46699728
7.414003655,4.543545723,-19.73746109,-2.419213295,20.39764131
7.418816728,5.828128815,-21.34880447,-0.194168925,22.13088881
7.423790062,10.26931953,-22.89211273,-2.288297653,25.19412739
7.428763395,12.52166462,-21.89136887,-4.18351841,25.56415346
7.433736728,13.2872982,-20.18995667,-5.029635906,24.68772734
7.438710062,12.1407795,-17.77344894,-4.596719742,22.00963077
7.443683395,9.684474945,-14.96111298,-3.525933266,18.16744786
7.448656728,7.042309761,-12.28992558,-2.401398182,14.36673626
7.453630062,5.116823196,-9.931391716,-1.570231795,11.28184599
7.458603395,3.899817944,-7.885018349,-1.099683881,8.865179016
7.463576728,2.978540182,-6.080994606,-0.690047979,6.806347275
7.468550062,2.144060612,-4.456717491,-0.049482942,4.94588468
7.473523395,1.395954132,-2.892303467,0.583276868,3.264095462
7.478496728,0.686489821,-1.368345261,1.001529455,1.829398337
7.483470062,-0.024627686,0.081907272,1.214614868,1.21762252
7.488443395,-0.598427773,1.530320644,1.359179497,2.132455387
7.493416728,-1.003933191,2.950567245,1.535671234,3.474480546
7.498390062,-1.317793131,4.270852089,1.622662544,4.754975293
7.503363395,-1.528644443,5.574647903,1.566357374,5.988900442
7.508336728,-1.637271523,6.87838459,1.427412629,7.213205905
7.513310062,-1.770972967,8.023994446,1.250065804,8.31164825
7.518283395,-1.944238067,8.973293304,1.016305447,9.237582538
7.523256728,-2.145006657,9.752808571,0.722568333,10.01201446
7.528230062,-2.439564466,10.38446236,0.298526108,10.6713472
7.533203395,-2.867263556,10.80422401,-0.236953914,11.18072466
7.538017249,-3.352467775,10.98611832,-0.748754084,11.51062416
7.542990583,-3.834084988,10.93867302,-1.0051893,11.6346543
7.547963916,-3.756748438,10.91510201,-0.684662223,11.56379579
7.552937249,-3.616558313,10.95360088,-0.241856933,11.5377364
7.557910583,-3.497643948,11.04924965,0.190244675,11.59118734
7.562883916,-3.362244129,11.16837215,0.376320899,11.66956895
7.567857249,-3.172572136,11.33227921,0.1334517,11.76875419
7.572830583,-2.960211515,11.51921463,-0.452428758,11.90209434
7.577803916,-2.718637943,11.69787407,-1.183471322,12.06780238
7.582777249,-2.469915152,11.81313896,-1.821326017,12.20524319
7.587750583,-2.238352537,11.88893318,-2.193292141,12.29501869
7.592723916,-2.027020454,11.95866203,-2.254634142,12.33700874
7.597697249,-1.824573517,12.03178406,-2.168391466,12.36102009
7.602670583,-1.626753449,12.08429718,-2.073446989,12.36833649
7.607643916,-1.465279937,12.08980274,-1.933989406,12.33088361
7.612617249,-1.333703279,12.05058765,-1.733276963,12.2474355
7.617590583,-1.237146497,11.94511414,-1.468762159,12.09849352
7.622563916,-1.207095981,11.7733593,-1.078374386,11.8841054
7.627537249,-1.35073185,11.42310905,-0.6221174,11.51950203
7.632510583,-1.705082774,10.82308292,-0.252623916,10.9594822
7.637483916,-2.042095184,10.20564842,0.00420922,10.40795034
7.642457249,-2.196324587,9.740670204,0.256167233,9.988499355
7.647430583,-2.303826571,9.394554138,0.574612916,9.689966167
7.652403916,-2.433474779,9.143354416,1.003951311,9.514759467
7.657216989,-2.581554174,8.943634033,1.55649662,9.437992022
7.662190322,-2.906688929,8.654685974,2.694793701,9.519156629
7.667163655,-3.120328903,8.509031296,3.14165926,9.592188956
7.672136989,-3.322613955,8.3679533,3.418820381,9.630718495
7.677110322,-3.505925655,8.243559837,3.545389891,9.634188236
7.682083655,-3.653170824,8.152689934,3.574249268,9.622227811
7.687056989,-3.745094776,8.104927063,3.496025562,9.588418655
7.692030322,-3.81969595,8.085957527,3.320857048,9.539438024
7.697003655,-3.876935244,8.081417084,3.120798588,9.491012211
7.701976989,-3.899950981,8.098502159,2.932009459,9.45473608
7.706950322,-3.922107697,8.130058289,2.745077133,9.434841018
7.711923655,-3.926704168,8.142570496,2.548362255,9.39226331
7.716896989,-3.944779873,8.145635605,2.394742489,9.362022177
7.721870322,-3.985737324,8.129737854,2.279619694,9.336777042
7.726843655,-4.018363476,8.116439819,2.167301178,9.31241294
7.731816989,-4.061689854,8.105772018,2.069866896,9.299742655
7.736790322,-4.125179768,8.064274788,2.006567001,9.277712385
7.741763655,-4.184808731,8.015932083,1.977384448,9.256232524
7.746736989,-4.204781055,7.977469444,1.960809827,9.228487289
7.751710322,-4.223469257,7.939282417,1.954513788,9.202718186
7.756683655,-4.224235535,7.882181644,1.920511484,9.146656093
7.761656989,-4.16663599,7.81084919,1.809173346,9.0356698
7.766630322,-4.065243721,7.746659756,1.583279371,8.890653376
7.771603655,-3.929786444,7.672650814,1.201267838,8.70378288
7.776415999,-3.799438953,7.535766602,0.613870084,8.461699068
7.781389333,-3.531900883,7.170542717,-0.905820131,8.044346885
7.786362666,-3.357721567,6.83983326,-2.614639282,8.055678228
7.791335999,-2.975854158,6.094505787,-7.567630291,10.16207346
7.796309333,-2.013679504,4.758608818,-13.85406208,14.78628754
7.801282666,-0.080378771,2.578299522,-11.43998241,11.72720286
7.806255999,2.683891296,-0.950407982,6.109473228,6.74034205
7.811229333,4.416175365,-4.768793106,18.58012581,19.68413238
7.816202666,4.733690262,-7.524935722,10.28760242,13.59658945
7.821175999,5.203607559,-10.57123947,-3.080767155,12.1786601
7.826149333,5.903607845,-14.83966446,-11.54422474,19.70627696
7.831122666,6.771436691,-19.80562592,-14.35849953,25.38270438
7.836095999,7.87750721,-25.02826309,-9.814163208,28.01404777
7.841069333,8.965535164,-30.00395584,-1.69660306,31.36075013
7.846042666,10.12118721,-34.54201508,3.620479107,36.17591885
7.851015999,11.23735809,-38.63953018,3.601835251,40.4012961
7.855989333,11.56912231,-41.95338058,0.753051519,43.52582935
7.860962666,10.39394855,-43.44668961,-1.472535849,44.6969503
7.865935999,8.016139984,-41.67816544,-1.672504425,42.47499553
7.870909333,5.516524315,-36.20503998,-0.841996431,36.63258001
7.875882666,3.906482697,-28.63612938,-0.315910339,28.90308482
7.880855999,3.557211876,-21.15427017,0.052661181,21.45133273
7.885829333,3.842254639,-14.90636063,0.938379645,15.42216146
7.890802666,4.158952236,-10.021348,1.806167603,10.9993882
7.895615739,4.393615723,-6.232788086,1.586307168,7.788958651
7.900589072,4.575560093,-0.941657066,-1.982829571,5.074847909
7.905562405,3.926846504,0.498571396,-2.993292809,4.962710826
7.910535739,2.839942455,1.102015018,-2.432775021,3.898474644
7.915509072,1.600679398,1.138406277,-0.727156401,2.094492735
7.920482405,0.792485237,1.079440117,0.938926101,1.635483427
7.925455739,0.46632719,1.058045387,1.774123192,2.117648269
7.930429072,0.56662178,1.127169132,1.668375373,2.091661273
7.935402405,1.001013279,1.193573952,1.226104736,1.982417511
7.940375739,1.524336338,1.307910919,0.828278124,2.172619823
7.945349072,1.813496113,1.490124702,0.415877342,2.38373525
7.950322405,1.840322495,1.660050392,-0.062761784,2.47921222
7.955295739,1.885389805,1.921926975,-0.63721323,2.766683703
7.960269072,1.844637871,2.212991714,-1.153428793,3.103291669
7.965242405,1.503103733,2.39005661,-1.389235735,3.146691494
7.970215739,1.033615351,2.592324734,-1.357299089,3.103348037
7.975189072,0.621048689,2.789148331,-1.189795852,3.095264779
7.980162405,0.287208796,3.014339447,-0.942322671,3.171230552
7.985135739,0.053821087,3.304014683,-0.558047712,3.351242603
7.990109072,0.018381119,3.646042347,-0.177983999,3.650430244
7.995082405,0.221111774,4.13361311,-0.024155617,4.139593126
8.000055739,0.322469235,4.582667351,0.156954706,4.59667937
8.005029072,0.170213699,5.007959366,0.446407676,5.030696724
8.010002405,-0.105536223,5.455269814,0.59058857,5.488160119
8.014816312,-0.432247877,5.933327198,0.542890072,5.973770961
8.019789645,-1.247460604,6.731106758,0.081864953,6.846214868
8.024762978,-1.669633389,7.027457237,-0.204365373,7.225966792
8.029736312,-2.062593937,7.272580624,-0.480537146,7.574670859
8.034709645,-2.478993416,7.428311825,-0.72024107,7.864093852
8.039682978,-2.863921404,7.473227978,-0.896989465,8.05330816
8.044656312,-3.193765163,7.369150162,-1.041618347,8.098733161
8.049629645,-3.41196847,7.092128754,-1.199119091,7.9610116
8.054602978,-3.435844421,6.627793312,-1.378384948,7.591614857
8.059576312,-3.304897785,5.954594612,-1.521409631,6.978125366
8.064549645,-3.03727293,5.139447689,-1.527719975,6.162213703
8.069522978,-2.658326387,4.237231731,-1.349932671,5.181037555
8.074496312,-2.174319744,3.259705544,-1.048630953,4.056226504
8.079469645,-1.684384465,2.209154129,-0.710456669,2.867448634
8.084442978,-1.263207316,1.07600975,-0.426814646,1.713376914
8.089416312,-0.977155089,-0.115522385,-0.255432904,1.016574374
8.094389645,-0.88716054,-1.341128349,-0.203650802,1.620849383
8.099362978,-0.914761901,-2.533322334,-0.304838032,2.710615725
8.104336312,-0.967038035,-3.619876862,-0.572790146,3.790350855
8.109309645,-0.968401313,-4.526414871,-0.994770467,4.734532815
8.114282978,-0.83890152,-5.162008286,-1.464870453,5.431015627
8.119256312,-0.587786436,-5.493407249,-1.815576553,5.815439306
8.124229645,-0.269955158,-5.513757706,-1.935053825,5.849686584
8.129202978,0.07611537,-5.204363823,-1.798063159,5.506743818
8.134016051,0.392473221,-4.510809898,-1.472262621,4.76119716
8.138989385,0.58291316,-2.23825264,-0.86919862,2.470843757
8.143962718,0.375826597,-1.044913292,-0.669245005,1.29652547
8.148936051,0.111468792,0.017540932,-0.277452886,0.299521418
8.153909385,-0.104537487,0.918379784,0.361916184,0.992639329
8.158882718,-0.21944809,1.643605232,1.058559656,1.9672682
8.163856051,-0.240236998,2.200813293,1.679865479,2.779071967
8.168829385,-0.176260948,2.588029385,2.19631815,3.398937692
8.173802718,0.032292604,2.805608749,2.549923658,3.791384171
8.178776051,0.382880926,2.875362396,2.683079958,3.951357333
8.183749385,0.805952311,2.802284718,2.545800209,3.870847126
8.188722718,1.234401941,2.591320038,2.155406237,3.589493521
8.193696051,1.656346798,2.261782646,1.598655939,3.227204094
8.198669385,2.059847116,1.835322857,0.974149883,2.925807261
8.203642718,2.44250083,1.371797085,0.421113581,2.83283854
8.208616051,2.759012461,0.919052124,-0.076548576,2.909066216
8.213589385,2.966413736,0.496106148,-0.567939401,3.060765742
8.218562718,3.067094803,0.143440247,-0.97546041,3.221671716
8.223536051,3.039461374,-0.122418404,-1.169415355,3.258963636
8.228509385,2.890242815,-0.292201996,-1.088091612,3.102068486
8.233482718,2.628595114,-0.390081406,-0.797017396,2.774331001
8.238456051,2.168578625,-0.466302872,-0.454956949,2.264322734
8.243429385,1.451401949,-0.554089546,-0.177249134,1.563649608
8.248402718,0.633610725,-0.655544281,-0.026100934,0.912075718
8.253215062,-0.078840256,-0.731508255,-0.035030723,0.736578078
8.258188395,-0.981920004,-0.785090447,-0.257630467,1.283318885
8.263161728,-1.212714791,-0.771121025,-0.312702358,1.470743881
8.268135062,-1.360605597,-0.751976967,-0.284003079,1.580308419
8.273108395,-1.466774702,-0.718244553,-0.214775264,1.647249732
8.278081728,-1.543419123,-0.686750412,-0.174314261,1.69827977
8.283055062,-1.609900236,-0.638438225,-0.219830811,1.745768519
8.288028395,-1.666408777,-0.580582619,-0.343767941,1.797823903
8.293001728,-1.681975007,-0.518016815,-0.495670319,1.828406522
8.297975062,-1.632989764,-0.441267014,-0.601288855,1.795249407
8.302948395,-1.553154945,-0.364736557,-0.656011879,1.725014384
8.307921728,-1.47355783,-0.307545662,-0.712375522,1.665363593
8.312895062,-1.401261687,-0.26245594,-0.768027008,1.619346449
8.317868395,-1.333770037,-0.231806755,-0.753682971,1.549424055
8.322841728,-1.242352486,-0.182088852,-0.659990013,1.418514316
8.327815062,-1.127103329,-0.108564377,-0.568273902,1.266918847
8.332788395,-0.978575468,-0.051949501,-0.530935526,1.114540816
8.337761728,-0.799204588,0.002116203,-0.526188433,0.956873408
8.342735062,-0.610667944,0.05121994,-0.503981948,0.79343344
8.347708395,-0.40829277,0.102532387,-0.397771686,0.579170261
8.352681728,-0.206464291,0.172818184,-0.222715527,0.349422143
8.357655062,-0.029195309,0.259659767,-0.027279526,0.26271607
8.362628395,0.116447687,0.358287811,0.121293724,0.395780731
8.367601728,0.242522955,0.454351425,0.177794009,0.544851641
8.372414853,0.362606764,0.554771423,0.144928426,0.67842409
8.377388187,0.599458456,0.709990501,0.073284179,0.932098452
8.38236152,0.718231201,0.764391899,0.087567061,1.052529821
8.387334853,0.824104548,0.785017014,0.232565329,1.161674072
8.392308187,0.905082941,0.803021431,0.530928493,1.32132646
8.39728152,0.934767246,0.79688549,0.914305925,1.531264711
8.402254853,0.908576012,0.761878014,1.119654417,1.630826321
8.407228187,0.855317831,0.721886635,0.876269996,1.4214563
8.41220152,0.770225048,0.703133583,0.297015727,1.084371616
8.417174853,0.651069164,0.696036339,-0.269519121,0.990453531
8.422148187,0.512290239,0.645606041,-0.560140312,0.996496673
8.42712152,0.368316889,0.539992333,-0.525673926,0.838798025
8.432094853,0.228866816,0.379343033,-0.303804457,0.537194847
8.437068187,0.108448982,0.161401749,-0.084341124,0.211955494
8.44204152,-0.007057905,-0.087376595,0.024864584,0.091119322
8.447014853,-0.107878685,-0.338199616,-0.059385479,0.359921416
8.451988187,-0.182019234,-0.545631409,-0.340860754,0.668603537
8.45696152,-0.227129221,-0.666694641,-0.670397937,0.972369694
8.461934853,-0.257696152,-0.715870857,-0.878100753,1.161868892
8.466908187,-0.285638809,-0.693225861,-0.878345251,1.154834189
8.47188152,-0.298981667,-0.594046593,-0.755518377,1.006523427
8.476854853,-0.278590202,-0.46624279,-0.591309667,0.802895985
8.481828187,-0.215028524,-0.326609612,-0.433612108,0.583892597
8.48680152,-0.096561909,-0.184780121,-0.306224227,0.370460757
8.491615374,0.056960583,-0.067264557,-0.177348986,0.198044671
8.496588708,0.369925499,0.05710125,0.114375725,0.391391408
8.501562041,0.471589088,0.092689514,0.197747588,0.519703495
8.506535374,0.520063877,0.130489349,0.225890398,0.581825041
8.511508708,0.503669977,0.151432991,0.179620832,0.555768873
8.516482041,0.456173182,0.165166855,0.044726446,0.487210957
8.521455374,0.406338215,0.174103737,-0.1044503,0.454238617
8.526428708,0.366179705,0.161520958,-0.215142891,0.454382063
8.531402041,0.359508991,0.105897903,-0.303884089,0.482500384
8.536375374,0.398206472,0.016839981,-0.389554679,0.557319323
8.541348708,0.467752218,-0.06739521,-0.474259734,0.669519639
8.546322041,0.553758621,-0.12051487,-0.526712418,0.773691421
8.551295374,0.634449959,-0.135456085,-0.537340999,0.84238379
8.556268708,0.726504564,-0.124243736,-0.492065877,0.886213414
8.561242041,0.822728396,-0.086910248,-0.400673091,0.919224853
8.566215374,0.899058104,-0.035489082,-0.296732128,0.947425408
8.571188708,0.948318481,0.022819519,-0.213844374,0.972398112
8.576162041,0.958673239,0.076076508,-0.15209116,0.973639428
8.581135374,0.946944714,0.119514465,-0.104294449,0.960138183
8.586108708,0.910859346,0.148395538,-0.056258753,0.924581544
8.591082041,0.876811504,0.177101135,-0.017515793,0.894689907
8.596055374,0.847223759,0.198466301,-0.00249061,0.870162728
8.601028708,0.81486249,0.198129654,-0.018118784,0.838799456
8.606002041,0.782093525,0.200021744,-0.054852381,0.809127779
8.610815166,0.746443749,0.19931984,-0.093207598,0.778199412
8.615788499,0.633673906,0.217502594,-0.123452321,0.681241861
8.620761833,0.573246241,0.223545075,-0.09819907,0.623078414
8.625735166,0.526778936,0.229399681,-0.060642034,0.577752298
8.630708499,0.491832256,0.223098755,-0.008433729,0.540132531
8.635681833,0.444480419,0.216610909,0.041602388,0.496199443
8.640655166,0.387103558,0.212320328,0.07981655,0.448664426
8.645628499,0.329363585,0.198291779,0.111014977,0.400155377
8.650601833,0.268839121,0.179310799,0.137578115,0.351218697
8.655575166,0.210375309,0.188869476,0.166702315,0.328205898
8.660548499,0.158694983,0.231693268,0.169832557,0.328190441
8.665521833,0.106588841,0.288594246,0.173396826,0.353149089
8.670495166,0.068371534,0.36192894,0.19175899,0.415257432
8.675468499,0.02236414,0.432487488,0.227460161,0.489166338
8.680441833,-0.036125422,0.493123055,0.292450517,0.574458613
8.685415166,-0.104714871,0.555782318,0.374877006,0.678521893
8.690388499,-0.202474594,0.622864723,0.467464745,0.804661241
8.695361833,-0.300657272,0.696761131,0.582018733,0.956355935
8.700335166,-0.3993361,0.782222748,0.718371809,1.134636419
8.705308499,-0.522352696,0.874474526,0.82615149,1.311519851
8.710281833,-0.652886152,0.97829628,0.817113102,1.432130497
8.715255166,-0.807556629,1.079335213,0.629612088,1.487791515
8.720228499,-0.983803034,1.163263321,0.304964662,1.553722436
8.725201833,-1.169475794,1.211014748,0.00607121,1.683528203
8.730014176,-1.361191988,1.191955566,-0.079313159,1.811047288
8.73498751,-1.670048952,0.979063034,0.373469621,1.971574874
8.739960843,-1.760299325,0.809677124,0.597533464,2.027628418
8.744934176,-1.787510991,0.626398087,0.669908226,2.009066235
8.74990751,-1.770816565,0.460317612,0.560323894,1.913542912
8.754880843,-1.70792222,0.366333962,0.291459918,1.77091721
8.759854176,-1.61582613,0.370503426,-0.090039194,1.660202978
8.76482751,-1.506717682,0.4941082,-0.418674827,1.640009054
8.769800843,-1.402405024,0.708209992,-0.515446782,1.653477132
8.774774176,-1.26988101,0.962369919,-0.340945482,1.629416295
8.77974751,-1.0857234,1.230175972,0.127048016,1.645682054
8.784720843,-0.948388815,1.4518013,0.74358356,1.886818717
8.789694176,-0.836632967,1.59850502,1.166396737,2.148407403
8.79466751,-0.681455135,1.698821545,1.157778263,2.165831537
8.799640843,-0.500099897,1.716615677,0.779453039,1.950491305
8.804614176,-0.338491917,1.625326157,0.138567627,1.665972053
8.80958751,-0.213479519,1.467892647,-0.677222967,1.630617452
8.814560843,-0.215838671,1.215581894,-1.480671644,1.927852222
8.819534176,-0.573971748,0.797103882,-2.071125507,2.292243232
8.82450751,-1.295773983,0.301687241,-2.289782047,2.648234738
8.829480843,-2.06196022,-0.088374138,-2.076435804,2.927639935
8.834454176,-2.594827175,-0.308410645,-1.590531588,3.059090702
8.83942751,-2.808624506,-0.406452179,-1.131415844,3.055106676
8.844400843,-2.709046125,-0.38782692,-0.948832154,2.896484608
8.849213968,-2.350357056,-0.196598053,-1.087686181,2.597285181
8.854187301,-1.400044918,0.467307091,-1.513971567,2.114382084
8.859160635,-1.244378567,0.719449043,-1.149549007,1.840529235
8.864133968,-1.4198668,0.871864319,-0.341776729,1.700876378
8.869107301,-1.92466712,0.935180664,0.605578482,2.223877626
8.874080635,-2.55854845,0.958180904,1.361244798,3.052420059
8.879053968,-3.06937933,1.001227856,1.779341459,3.686407834
8.884027301,-3.370560408,1.045436382,1.844195366,3.981792466
8.889000635,-3.480908871,1.019185543,1.583637714,3.957698087
8.893973968,-3.536459923,0.870032311,1.082743645,3.799452435
8.898947301,-3.606327534,0.645870209,0.448144078,3.691013373
8.903920635,-3.62588644,0.40653038,-0.240852118,3.656546071
8.908893968,-3.550033092,0.211985588,-0.741653681,3.632867054
8.913867301,-3.272494793,0.179634094,-0.62528944,3.336536747
8.918840635,-2.62075901,0.34295845,0.060485363,2.643795901
8.923813968,-1.64490819,0.539046288,0.719438672,1.874536171
8.928787301,-0.471183777,0.643099785,0.913437963,1.212419233
8.933760635,0.71282053,0.628520012,0.703325152,1.182293019
8.938733968,1.69924593,0.435609818,0.47064364,1.816231835
8.943707301,2.414970398,-0.009255409,0.455027461,2.457481979
8.948680635,2.856863976,-0.666963577,0.570595622,2.988660495
8.953653968,3.111069679,-1.47428894,0.693822384,3.511932791
8.958627301,3.493132591,-2.439925194,0.739914298,4.32465992
8.963600635,4.145827293,-3.584589958,0.772320747,5.534767245
8.968414489,5.056745052,-4.93115139,0.727561474,7.100441553
8.973387822,8.129155159,-8.188299179,-0.451210976,11.54707748
8.978361155,10.10799026,-10.24876499,-1.116164446,14.43795256
8.983334489,12.05895233,-12.60600567,-1.320303202,17.49493958
8.988307822,13.53413582,-15.28960514,-0.824398994,20.43586287
8.993281155,14.60858059,-18.06140137,0.072053909,23.2299384
8.998254489,15.44284439,-20.68891144,0.394043088,25.81991033
9.003227822,15.78763771,-23.02643776,-0.339396238,27.92098727
9.008201155,15.56228828,-24.82648087,-1.830167294,29.35793728
9.013174489,14.87709141,-25.70621681,-3.301928043,29.88377754
9.018147822,13.80106354,-25.180933,-4.047400475,28.99879639
9.023121155,12.39574909,-23.02894211,-3.719531059,26.41631468
9.028094489,10.54314804,-19.9362278,-2.618423462,22.70390475
9.033067822,8.173147202,-16.9457283,-1.473591805,18.87139411
9.038041155,5.801499367,-14.44181442,-0.646677494,15.57695704
9.043014489,4.016614914,-12.22553158,-0.35640955,12.87337739
9.047987822,2.716997147,-10.13666344,-0.469498515,10.50497254
9.052961155,1.652290821,-8.256936073,-0.778680444,8.456559673
9.057934489,0.744699478,-6.576954842,-1.115645766,6.712345177
9.062907822,-0.156720161,-5.05106926,-1.34112668,5.228430228
9.067881155,-0.944654465,-3.583558083,-1.530883312,4.009721225
9.072854489,-1.385305405,-2.148075104,-1.446026921,2.936714418
9.077827822,-1.684685707,-0.887896538,-0.94856745,2.127511786
9.082801155,-2.01219368,0.228597641,-0.304969668,2.047971383
9.08761428,-2.433186531,1.303891182,0.181871474,2.766515162
9.092587614,-2.784090519,3.757710457,0.926075995,4.767511368
9.097560947,-2.956776857,5.033893585,1.268692255,5.974294439
9.10253428,-3.204468012,6.207734108,1.553564191,7.156684965
9.107507614,-3.521857262,7.296266079,1.834852695,8.306964649
9.112480947,-3.777044773,8.282962799,2.092385769,9.340857464
9.11745428,-4.003130436,9.15603447,2.128078461,10.21698284
9.122427614,-4.242607117,9.867852211,2.002668381,10.92633987
9.127400947,-4.463954926,10.38512516,1.65752387,11.42475836
9.13237428,-4.590363503,10.67695045,1.039309621,11.6682849
9.137347614,-4.607500076,10.79608822,0.310575038,11.74227553
9.142320947,-4.585138321,10.90040779,-0.487128347,11.83552607
9.14729428,-4.421161652,11.07814026,-1.421246409,12.01215232
9.152267614,-4.167062759,11.30978203,-2.168519974,12.246553
9.157240947,-3.929040194,11.5185833,-2.419065237,12.40834375
9.16221428,-3.665344477,11.72107601,-2.301278114,12.49456898
9.167187614,-3.324816227,11.91467762,-1.931911349,12.51983335
9.172160947,-2.839948654,12.06093216,-1.442001939,12.47440429
9.17713428,-2.29858923,12.15497398,-0.952079654,12.40698838
9.182107614,-1.821779728,12.21113968,-0.512632012,12.35692539
9.187080947,-1.455863714,12.22948742,-0.190270379,12.31730914
9.19205428,-1.179727316,12.18862629,-0.005751804,12.24558698
9.197027614,-0.962549329,12.11981773,0.082469031,12.15825992
9.202000947,-0.790117681,12.03994274,0.12072631,12.06644446
9.206813291,-0.690672934,11.92390823,0.144884929,11.94477326
9.211786624,-0.71538192,11.63715172,0.285445362,11.66261336
9.216759958,-0.766856611,11.48350048,0.453499675,11.51800826
9.221733291,-0.818557739,11.34329319,0.677214027,11.39293448
9.226706624,-0.868096471,11.2260952,1.008598208,11.30469262
9.231679958,-0.917794466,11.13427925,1.370638609,11.25580612
9.236653291,-0.984318376,11.04627991,1.667432547,11.21470079
9.241626624,-1.067552328,10.93576717,1.889221668,11.14898337
9.246599958,-1.162428141,10.81233025,2.06669569,11.06927981
9.251573291,-1.283094406,10.67117023,2.209113359,10.97271103
9.256546624,-1.424199343,10.50514603,2.316210032,10.85132553
9.261519958,-1.575655937,10.32863998,2.385270119,10.71694962
9.266493291,-1.746155739,10.13934517,2.384790897,10.56137339
9.271466624,-1.96121788,9.954072952,2.336076021,10.41091711
9.276439958,-2.203051567,9.7872715,2.23662138,10.27845294
9.281413291,-2.467981339,9.615176201,2.05769372,10.13788186
9.286386624,-2.745231152,9.411670685,1.832900286,9.973733635
9.291359958,-3.035871983,9.196162224,1.610059261,9.817240405
9.296333291,-3.362675667,8.976076126,1.408266783,9.688175555
9.301306624,-3.67432785,8.775574684,1.244237423,9.594765393
9.306279958,-3.991286278,8.585341454,1.096452594,9.531036791
9.311253291,-4.348484039,8.400817871,0.8887676,9.501208459
9.316226624,-4.689878464,8.236564636,0.595876813,9.496895608
9.321199958,-4.997915268,8.078386307,0.185387611,9.501255228
9.326013083,-5.209137917,7.956622601,-0.312839568,9.515294511
9.330986416,-4.976811409,7.962520599,-1.002388,9.443260443
9.335959749,-4.379118919,8.157976151,-0.911678314,9.303784968
9.340933083,-3.492774248,8.458659172,-0.585431814,9.170120901
9.345906416,-2.571146727,8.699083328,-0.227941096,9.073962937
9.350879749,-1.852270484,8.783367157,-0.113989174,8.977273422
9.355853083,-1.367715597,8.709019661,-0.395164907,8.824614706
9.360826416,-1.0361588,8.538062096,-1.039973974,8.663352427
9.365799749,-0.77859354,8.341845512,-2.144883394,8.648301523
9.370773083,-0.477581978,8.136543274,-3.662378788,8.935571575
9.375746416,-0.152143836,7.8355937,-5.138194561,9.371270977
9.380719749,0.142516375,7.384055614,-5.829022408,9.408617883
9.385693083,0.363937378,6.726570129,-3.959649086,7.813962951
9.390666416,0.412525415,5.878849983,2.496472359,6.400267852
9.395639749,0.269109488,5.245692253,7.756813526,9.367916695
9.400613083,0.001439333,5.220572948,4.77005434,7.071619503
9.405586416,-0.093384266,5.279312611,-0.328191042,5.29032812
9.410559749,0.29022789,4.734352589,-1.428355694,4.953637719
9.415533083,1.416636944,3.391523838,-0.462468863,3.70447994
9.420506416,3.571808577,0.297656059,-0.25002265,3.59289952
9.425479749,6.00474596,-5.827774048,-3.280478239,8.987850793
9.430453083,8.706502914,-15.47379303,-11.94803429,21.40086417
9.435426416,12.50494289,-27.45120239,-20.26371193,36.33951198
9.440399749,16.25996971,-39.12770081,-17.40231895,45.80615996
9.445213603,18.60093689,-48.289505,-6.770120621,52.18913373
9.450186937,18.94993591,-56.24650192,7.079204559,59.77360778
9.45516027,13.76630592,-57.13111496,7.529335976,59.24665708
9.460133603,7.116490364,-55.48518372,4.960193157,56.15918058
9.465106937,2.500662327,-49.8066597,0.652903795,49.87366986
9.47008027,0.123438835,-40.51332092,-2.671085596,40.60146682
9.475053603,-0.85194087,-30.41592789,-2.20804739,30.50786695
9.480026937,-0.759579897,-21.74918556,0.782277703,21.77650093
9.48500027,-0.131365299,-14.94430065,4.108156204,15.49923631
9.489973603,0.436600208,-9.556015968,7.406832218,12.09831494
9.494946937,0.829493523,-5.048305511,9.053817749,10.39928189
9.49992027,2.10897541,-0.365559578,4.531191826,5.01129828
9.504893603,4.113852501,4.410163879,-4.351366997,7.436916201
9.509866937,5.245344639,7.789922714,-10.11927509,13.8056606
9.51484027,4.860210896,9.090619087,-10.37823296,14.62766983
9.519813603,3.683475971,8.979199409,-7.230750084,12.10279984
9.524786937,2.622723103,8.412757874,-3.351721048,9.42800114
9.52976027,1.947693586,7.738945961,-0.451044083,7.993011676
9.534733603,1.719506979,6.758883476,0.846580148,7.025376007
9.539706937,1.87477541,5.491131783,0.883500576,5.869232007
9.54468027,2.218212128,4.525756836,0.548265159,5.06986535
9.549653603,2.494989634,4.206034184,0.29702121,4.899379392
9.554626937,2.51308012,4.318063259,0.091398478,4.996958643
9.55960027,2.255586863,4.555238724,0.028385758,5.083175944
9.564413395,1.894639492,4.973049641,0.113938689,5.32295628
9.569386728,1.242769003,6.140769958,0.30583781,6.272724069
9.574360062,0.957483053,6.71243,0.201457679,6.783367564
9.579333395,0.643578529,7.260154724,-0.090642095,7.289187604
9.584306728,0.341543198,7.764733315,-0.495110035,7.787995194
9.589280062,0.075220108,8.195127487,-0.762487054,8.230866243
9.594253395,-0.229523897,8.503673553,-0.737244487,8.538657655
9.599226728,-0.560519457,8.709777832,-0.512969554,8.742857068
9.604200062,-0.841041565,8.813674927,-0.216495574,8.856358561
9.609173395,-1.025671721,8.844285011,0.137445867,8.904620778
9.614146728,-1.202592492,8.859258652,0.462704122,8.952473829
9.619120062,-1.390822291,8.904111862,0.683060408,9.03792931
9.624093395,-1.580522656,8.957401276,0.870441914,9.137327761
9.629066728,-1.714578986,8.942572594,1.065333605,9.167569001
9.634040062,-1.743050933,8.840554237,1.217718124,9.092659853
9.639013395,-1.878731847,8.665891647,1.291720271,8.960795314
9.643986728,-2.047444344,8.382816315,1.287678242,8.724778104
9.648960062,-2.229909897,8.013044357,1.229953051,8.407982072
9.653933395,-2.473923206,7.578247547,1.161832333,8.056052773
9.658906728,-2.702663422,7.03316927,1.012023807,7.602239915
9.663880062,-2.932906151,6.380375862,0.75940305,7.063131573
9.668853395,-3.057386637,5.67016983,0.471536517,6.459162921
9.673826728,-3.174405575,4.933728695,0.153339326,5.868734322
9.678800062,-3.391682148,4.178285122,-0.159383655,5.383955563
9.683612405,-3.57469058,3.460259438,-0.406775117,4.991720557
9.688585739,-3.617646456,2.421744347,-0.457330942,4.377369433
9.693559072,-3.405038834,2.012080193,-0.342067272,3.969857199
9.698532405,-3.205394983,1.541777134,-0.216634676,3.563504499
9.703505739,-3.006804705,0.924828529,-0.109735392,3.147733184
9.708479072,-2.639173269,0.214109421,0.000180595,2.647844108
9.713452405,-2.128510475,-0.542322159,0.108632468,2.199197849
9.718425739,-1.631760836,-1.33459568,0.144517601,2.112977613
9.723399072,-1.097854137,-2.102680206,0.089515328,2.373722973
9.728372405,-0.430608749,-2.824940681,-0.041480348,2.85787235
9.733345739,0.257823467,-3.573073387,-0.145608723,3.585321223
9.738319072,0.969925404,-4.382896423,-0.151527062,4.4914916
9.743292405,1.758349657,-5.306937218,-0.119624838,5.591930458
9.748265739,2.60133028,-6.452707291,-0.171993375,6.95944914
9.753239072,3.510693073,-7.882117271,-0.432316244,8.639423353
9.758212405,4.486454964,-9.618707657,-0.852030993,10.64771205
9.763185739,5.411960602,-11.59499168,-1.413267612,12.87363488
9.768159072,6.168976784,-13.54491329,-2.171929121,15.0412176
9.773132405,6.495171547,-15.14012814,-3.209590197,16.78428439
9.778105739,5.775009155,-15.99215317,-4.538060665,17.59811604
9.783079072,3.718826294,-15.11767292,-5.349403381,16.46176844
9.788052405,1.54339838,-12.03341579,-4.555523396,12.95908823
9.793025739,0.582237482,-8.161071777,-2.688565969,8.612228516
9.797999072,0.60713172,-4.805996895,-0.79295665,4.908665331
9.802812145,0.819232464,-2.046774864,0.827767253,2.354915667
9.807785478,0.48657918,2.125234604,3.422056675,4.057567412
9.812758812,0.163184404,3.772171021,4.466510296,5.84855688
9.817732145,0.046323538,5.359721661,5.118369579,7.41123939
9.822705478,0.224501133,7.045202255,5.064275742,8.67941037
9.827678812,0.819527149,9.274447441,3.689032555,10.01478713
9.832652145,1.688216686,11.89754391,1.294928551,12.08629251
9.837625478,1.946847439,12.46826553,-0.041603453,12.61941327
9.842598812,1.261929989,9.491407394,1.402521253,9.677104292
9.847572145,0.275763273,5.435677528,3.831535101,6.656072175
9.852545478,-0.50551796,2.589220047,4.600058556,5.302843348
9.857518812,-0.920772672,0.964982033,3.570696115,3.81167724
9.862492145,-0.759605765,0.477054596,1.624437213,1.855634195
9.867465478,-0.073849678,0.893559456,-0.28752169,0.941578992
9.872438812,0.726339579,1.478581429,-1.665455818,2.342544622
9.877412145,1.299640417,1.770133018,-2.491968393,3.321497041
