Time (s),Linear Acceleration x (m/s^2),Linear Acceleration y (m/s^2),Linear Acceleration z (m/s^2),Absolute acceleration (m/s^2)
0.102275312,0.586491585,0.371613503,-0.236730576,0.733560045
0.107041302,0.540237427,0.436944962,-0.447973251,0.82671483
0.11180651,0.413634777,0.321679115,-0.661987305,0.844273874
0.1165725,0.179668903,-0.009158611,-0.918164253,0.935622996
0.121339219,0.025793314,-0.23620081,-0.955677986,0.984772324
0.126105208,-0.093333244,-0.32500124,-0.768298149,0.839415836
0.130870416,-0.438679695,-0.520828724,-0.571329117,0.888886604
0.135636406,-0.9732759,-0.881923437,-0.394524097,1.371387688
0.140403177,-1.544761419,-1.403751135,-0.361871243,2.118432413
0.145169166,-1.758258462,-1.645064116,-0.264223576,2.422297022
0.149934375,-1.437002897,-1.381435156,-0.013105392,1.993367043
0.154700364,-1.307781339,-1.418789864,0.120530129,1.933334999
0.159467083,-0.882459641,-1.315787554,0.222071648,1.59979615
0.164233073,0.173718929,-0.617372036,0.362410545,0.736659963
0.168998281,0.877589226,0.012844324,0.224555969,0.905954309
0.173764271,1.14342761,0.555320978,-0.038849831,1.271737944
0.178531041,1.270053148,0.988430023,-0.049801826,1.610127055
0.183297031,1.428129911,1.362432718,0.241048813,1.988437197
0.188062187,1.685306787,1.686062336,0.639192581,2.468123239
0.192828177,2.083849192,1.939576864,1.047032356,3.033259405
0.197594948,2.543462753,2.094326258,1.400318146,3.579985497
0.202360937,2.915274382,2.05490756,1.513571739,3.874579875
0.207126146,3.008412361,1.886137009,1.606026649,3.897098837
0.211892135,2.793052912,1.690363646,1.867486,3.761113902
0.216658906,2.442170143,1.457896471,2.126446724,3.551257918
0.221424844,2.130500793,1.165673733,2.204159737,3.279656846
0.226190104,1.897567511,0.803150177,2.058954239,2.912920394
0.230956041,1.68587184,0.400306225,1.729054451,2.447864013
0.235722812,1.448883772,0.042604923,1.316753387,1.958294883
0.240488802,1.139321089,-0.179144144,0.940259934,1.488030211
0.24525401,0.744456053,-0.290477514,0.677384377,1.047588466
0.25002,0.327290535,-0.35363698,0.526899338,0.714003586
0.254786771,-0.02465272,-0.41312623,0.372997284,0.557142722
0.25955276,-0.260872603,-0.495998859,0.177296639,0.587795442
0.264317969,-0.411395073,-0.577377319,-0.048564911,0.710611726
0.269083906,-0.510248184,-0.649244785,-0.27449131,0.870182441
0.273850677,-0.555732012,-0.708588362,-0.48255825,1.021664329
0.278616666,-0.574707508,-0.787748337,-0.685473442,1.191935402
0.283381875,-0.582103729,-0.843569279,-0.883686543,1.353275946
0.288147864,-0.581080437,-0.836334229,-1.051528454,1.463837937
0.292914635,-0.55822134,-0.788370132,-1.14953661,1.501523542
0.297680625,-0.488188267,-0.696001291,-1.143586159,1.42496838
0.302445833,-0.3835392,-0.586399078,-1.035232544,1.250069045
0.307211771,-0.272829771,-0.488707542,-0.870612621,1.03500603
0.311978541,-0.153548002,-0.400920868,-0.695047379,0.816948829
0.316744531,0.009563208,-0.316347122,-0.555371285,0.639221574
0.321509739,0.225093126,-0.235322475,-0.462340355,0.565510554
0.326275729,0.485765934,-0.153232098,-0.363427162,0.62572192
0.3310425,0.777963162,-0.028712749,-0.180789948,0.799209677
0.335808489,1.092155218,0.117877007,-0.06608963,1.10048437
0.340573698,1.334699392,0.16310072,-0.123295784,1.350268922
0.345339687,1.416997433,0.060091972,-0.109866142,1.422520066
0.350106458,1.364204407,-0.074281216,0.047100067,1.367036861
0.354872396,1.309306622,-0.147587776,0.27889061,1.346790983
0.359637604,1.301269531,-0.186634064,0.567142487,1.431707116
0.364403594,1.274305105,-0.302661896,0.795013428,1.532156674
0.369170364,1.214292765,-0.508524418,0.876072884,1.58133099
0.373936354,1.156442642,-0.741267204,0.843140602,1.611745243
0.378701562,1.076037645,-0.931722641,0.716888428,1.593704211
0.383467552,0.969964504,-1.03071928,0.546080589,1.517042315
0.388234323,0.832372427,-1.065357447,0.374311447,1.402832636
0.393000312,0.648303986,-1.079032898,0.197315216,1.274183404
0.397765521,0.479329348,-1.093163729,0.074258804,1.195942278
0.40253151,0.358371019,-1.114812851,0.023241997,1.171229128
0.407298281,0.275182247,-1.148472071,0.000752449,1.180980073
0.412064219,0.23575449,-1.191708088,-0.021649361,1.214996725
0.416829427,0.219917059,-1.225840569,-0.031659126,1.245813354
0.421595416,0.22486496,-1.227631569,0.008625984,1.248085705
0.426362187,0.27033329,-1.204952478,0.112559319,1.240024259
0.431128177,0.357245684,-1.149040937,0.236476898,1.226311901
0.435893385,0.45588994,-1.117372036,0.339512825,1.253644632
0.440659375,0.303328276,-1.402791977,0.562848091,1.541632689
0.445426146,-0.014345884,-1.810159445,0.748905182,1.959015567
0.450192135,-0.028004169,-1.855693579,0.722780228,1.991681237
0.454957344,0.195625782,-1.673770905,0.590838432,1.785740334
0.459723333,0.281009674,-1.489254475,0.109495163,1.519484952
0.464490104,0.101912499,-1.446197987,-0.692094326,1.606508428
0.469256094,-0.136872768,-1.452642441,-1.327156544,1.972371341
0.474021302,-0.179724217,-1.29216671,-1.528601646,2.009631457
0.478787291,0.013130665,-1.028279305,-1.495910645,1.815290445
0.48355401,0.313741446,-0.792864084,-1.54156065,1.761668637
0.48832,0.59010601,-0.640511036,-1.702127934,1.91199346
0.493085208,0.787520409,-0.554055214,-1.919205189,2.147210779
0.497851198,0.929490328,-0.476148605,-2.177499294,2.414989222
0.502617969,0.987098932,-0.406768799,-2.416909218,2.642210311
0.507383958,0.950904369,-0.371839523,-2.608892918,2.80157206
0.512149166,0.856698751,-0.366264343,-2.737040043,2.891274895
0.516915156,0.719026566,-0.394528389,-2.756783485,2.876196627
0.521681927,0.538552046,-0.480166435,-2.652528286,2.748909678
0.526447916,0.297148466,-0.632009983,-2.439844131,2.537828445
0.531213125,0.031550646,-0.837639332,-2.172048569,2.328181711
0.535979114,-0.205616951,-1.060891628,-1.920852661,2.203961053
0.540745885,-0.404775858,-1.254076242,-1.733648777,2.177633761
0.545511875,-0.527619839,-1.393653631,-1.600647926,2.186944655
0.550277083,-0.600110769,-1.470367908,-1.500458717,2.184832049
0.555043073,-0.660110951,-1.506068468,-1.444871902,2.188982301
0.559809844,-0.723874331,-1.534098387,-1.450386524,2.231831754
0.564575833,-0.833840609,-1.596877575,-1.464531422,2.321671905
0.569341041,-1.017821074,-1.724540472,-1.461457729,2.47908416
0.574107031,-1.275048733,-1.894881725,-1.441527843,2.700801464
0.578873802,-1.559855223,-2.062123299,-1.416914463,2.948414389
0.583639791,-1.831911325,-2.211854696,-1.411379337,3.20002999
0.588405,-2.106034756,-2.3273983,-1.384278297,3.430508948
0.593170989,-2.330696583,-2.375632763,-1.342609406,3.58864565
0.597937708,-2.457136631,-2.359487295,-1.314548016,3.651402088
0.602703698,-2.469895363,-2.277331591,-1.266326904,3.590293318
0.607468958,-2.365788221,-2.120670557,-1.178344727,3.388612373
0.612234896,-2.15427494,-1.931116343,-1.168241024,3.120079797
0.617001666,-1.814440727,-1.683642864,-1.359241962,2.823895742
0.621767656,-1.333922625,-1.355938673,-1.610444069,2.492277944
0.626532864,-0.825533629,-1.011126518,-1.716059685,2.15609449
0.631298854,-0.414919376,-0.730500221,-1.716958046,1.911474194
0.636065625,-0.159977913,-0.568155766,-1.706306458,1.805512568
0.640831614,-0.098801136,-0.565453529,-1.682054043,1.777302777
0.645596823,-0.245305061,-0.729846716,-1.628308773,1.801177466
0.650362812,-0.5658741,-1.040002108,-1.579418659,1.973925323
0.655129583,-0.979726315,-1.386829138,-1.541082859,2.29305366
0.659895573,-1.444790363,-1.702459097,-1.464407921,2.670257802
0.664660781,-1.938333511,-2.005116701,-1.315241814,3.083421933
0.669426771,-2.445095778,-2.324854851,-1.085762978,3.544336988
0.674193541,-2.945586681,-2.667713165,-0.855881691,4.065182394
0.678959531,-3.413369417,-3.006598473,-0.673933983,4.598359726
0.683724739,-3.829539537,-3.328984261,-0.499712944,5.098747131
0.688490729,-4.137431145,-3.577522755,-0.285852432,5.477108466
0.6932575,-4.287796021,-3.695617437,-0.013688564,5.660651052
0.698023489,-4.38111639,-3.653599739,0.408873558,5.719278754
0.702788698,-4.313175201,-3.48419714,0.848253727,5.609157193
0.707554687,-3.868947268,-3.310307741,1.08899498,5.20699533
0.712321458,-3.181834698,-3.158951759,1.192969322,4.6396362
0.717087448,-2.550453186,-3.021215916,1.330693245,4.17172645
0.721852656,-2.15231657,-2.911931992,1.645035744,3.977179546
0.726618646,-2.056619167,-2.842978001,2.217818737,4.151015088
0.731385416,-2.170276165,-2.788084507,3.003828526,4.637510071
0.736151406,-2.289074898,-2.811413288,3.853177547,5.290641339
0.740916614,-2.36961937,-2.957794666,4.676524639,6.019429204
0.745682604,-2.41408968,-3.143340826,5.394664764,6.694089068
0.750449375,-2.405696392,-3.313187122,5.962181568,7.232716854
0.755215364,-2.368291855,-3.400753498,6.405292511,7.629004051
0.759980573,-2.349289417,-3.382716179,6.814051628,7.961986505
0.764746562,-2.388739109,-3.345181465,7.216048241,8.304677343
0.769513333,-2.531207085,-3.342669964,7.574347496,8.657435636
0.774279323,-2.644807816,-3.236973286,7.890038013,8.928925147
0.779044531,-2.567890644,-2.995638847,8.036495209,8.952830262
0.783810521,-2.370822906,-2.657691479,7.964644432,8.72465966
0.788577291,-2.163895607,-2.257229567,7.804120064,8.407248033
0.793343281,-1.966368675,-1.916448355,7.603161812,8.083776939
0.798108489,-1.757013321,-1.642471552,7.383728504,7.765581448
0.802874479,-1.526542664,-1.378101707,7.222196579,7.509302247
0.80764125,-1.353899956,-1.102005959,7.123456955,7.334241693
0.812407239,-1.279538155,-0.840463519,7.030718803,7.195457158
0.817172448,-1.286523342,-0.595625162,6.942210197,7.085491802
0.821938437,-1.305673599,-0.324610949,6.901487827,7.031407402
0.826705208,-1.251448631,-0.047032073,6.903990746,7.016653327
0.831471198,-1.133916855,0.212733105,7.002029419,7.096438458
0.836236406,-0.982035637,0.437706709,7.194974899,7.274863913
0.841002396,-0.865047455,0.568431437,7.420324326,7.492171547
0.845769166,-0.642014504,0.740431964,7.645914078,7.708464452
0.850535156,-0.244297981,1.028721094,7.856536865,7.927365269
0.855300416,0.200945854,1.345833302,8.004214287,8.119057387
0.860066406,0.65537262,1.638432384,8.029315948,8.220942072
0.864833125,1.061769485,1.865674257,7.94651413,8.231353576
0.869599114,1.437035561,2.027372122,7.782319546,8.169443459
0.874364375,1.824109077,2.16865325,7.551355362,8.065568712
0.879130364,2.196613312,2.346489429,7.227898598,7.910350234
0.883897135,2.513969421,2.54155302,6.798512459,7.68110055
0.888663125,2.783305168,2.694086552,6.269193649,7.369374398
0.893428333,3.009545326,2.766270638,5.693071365,7.008614548
0.898194323,3.267027855,2.856144428,5.10307312,6.698685488
0.902961094,3.519946098,2.918546677,4.430222988,6.366695451
0.907727083,3.630192757,2.825738907,3.711225033,5.910692943
0.912492291,3.646271706,2.636468649,3.056192398,5.439354398
0.917258281,3.642739296,2.475674868,2.529154778,5.078891564
0.922025052,3.650737762,2.441198587,2.098816395,4.867480561
0.926791041,3.686666489,2.544292927,1.663019657,4.778134644
0.93155625,3.790365219,2.726919889,1.170538425,4.813846776
0.936322239,3.96531105,2.955026388,0.642419815,4.986840272
0.94108901,4.20522213,3.194534063,0.099672318,5.281938623
0.945855,4.492033958,3.402051449,-0.413347244,5.650060096
0.950620208,4.803056717,3.574968338,-0.869381428,6.050254252
0.955386198,5.096828461,3.736879826,-1.282186985,6.448715737
0.960152969,5.329939842,3.899544954,-1.622894526,6.800624693
0.964918958,5.540165901,4.01761961,-1.953236818,7.116870071
0.969684166,5.724658012,4.08663559,-2.358489037,7.418542332
0.974450156,5.837930679,4.138043404,-2.754648209,7.667654438
0.979216927,5.918228149,4.155599594,-3.124953985,7.877802347
0.983982916,5.944354057,4.137609482,-3.486411095,8.038048252
0.988748177,5.885662556,4.103876114,-3.824856758,8.130950258
0.993514166,5.787731171,4.074167252,-4.228355408,8.244735311
0.998280885,5.705087185,4.075351715,-4.710180283,8.446437692
1.003046927,5.658490181,4.110180855,-5.207174301,8.719332657
1.007812135,5.601867676,4.15974617,-5.618411541,8.958289898
1.012578125,5.534840584,4.198000431,-5.922352791,9.128632454
1.017344896,5.433492184,4.163256645,-6.105053425,9.172089213
1.022110885,5.286118984,4.039446354,-6.128976345,9.045691339
1.026876094,5.116691589,3.89875412,-6.109019756,8.871354964
1.031642083,4.967922688,3.788992405,-6.128294468,8.75172625
1.036408854,4.865859032,3.711400986,-6.145371914,8.672754888
1.041174844,4.193226337,1.53671658,-9.968158722,10.92285829
1.045940052,3.575279713,0.926089644,-10.68715096,11.30731898
1.050706041,3.621386051,3.352796078,-5.3914361,7.309121814
1.055472812,4.002467155,3.957550287,-3.129164219,6.440001267
1.060238802,4.884606361,3.305970669,-3.568959236,6.893931491
1.06500401,5.645208359,2.871472359,-4.231414318,7.61699403
1.06977,5.874631882,3.033714771,-4.119631767,7.790127788
1.074536771,5.677577019,3.444338799,-3.35198164,7.438691516
1.07930276,5.129737854,3.595629215,-2.603981256,6.784060605
1.084068021,4.260988235,3.504651785,-2.223834515,5.948448943
1.08883401,3.434201241,3.351004601,-2.409696341,5.369320855
1.093600781,3.62476635,2.586942673,-5.076004505,6.752556939
1.098366771,4.09778595,1.625024557,-7.774180889,8.937026519
1.103131979,3.412101746,1.450635672,-7.61000061,8.465157498
1.107897969,1.619971275,1.506979704,-6.649094105,7.007549299
1.112664739,-0.109484673,0.996424139,-6.293438911,6.372771869
1.117430729,-0.934078693,0.068969727,-6.296996593,6.36627253
1.122195937,-1.137335777,-0.800858855,-5.836969376,6.000426574
1.126961927,-1.024701595,-1.6126827,-4.774712563,5.142824021
1.131728698,-0.89948082,-2.394039392,-3.281220436,4.160155996
1.136494687,-0.829767227,-3.048121452,-1.761218548,3.616828557
1.141259896,-0.525650978,-3.359508991,-0.599433661,3.452814841
1.146025937,0.244084358,-3.227886915,-0.514774084,3.277777215
1.150792656,1.144485474,-2.900392771,-1.893356323,3.647865594
1.155558698,1.521658897,-2.494361401,-3.567654133,4.611446694
1.160323906,1.60568428,-1.939258575,-4.582798958,5.228861455
1.165089896,2.030636787,-1.344118595,-5.224179268,5.763869324
1.169856666,2.832091331,-0.737243056,-5.609281063,6.326792448
1.174622656,3.891178131,-0.11643064,-5.647022247,6.858839815
1.179387864,4.92521286,0.36822468,-5.394403458,7.313884043
1.184153854,5.514829636,0.714117646,-4.724783421,7.297046546
1.188920625,5.235912323,0.854597151,-3.686988354,6.460572518
1.193686614,3.973873138,0.666100383,-2.806507826,4.910381209
1.198451823,2.299050331,0.213589668,-2.269874096,3.23783591
1.203217812,0.967534065,-0.373489976,-1.770134211,2.051582817
1.207984583,0.205269814,-1.048438191,-1.224386215,1.624955366
1.212750625,-0.161213875,-1.772717237,-0.707348168,1.915426258
1.217515833,-0.269086838,-2.544271946,0.099272132,2.560387162
1.222281823,-0.372068405,-3.277304173,1.250314236,3.527384757
1.227048594,-0.632586479,-3.867231607,2.343598604,4.565972008
1.231814583,-1.019555092,-4.348032951,3.066947222,5.417660786
1.236579791,-1.497216225,-4.684352875,3.377091169,5.965698873
1.241345781,-1.877268791,-4.834058285,3.526843548,6.271433889
1.246112552,-1.979254723,-4.917592525,3.625886679,6.42239984
1.250878541,-1.599477768,-5.220085621,3.168719769,6.312559544
1.25564375,-1.064294815,-5.138460636,2.950015068,6.0198912
1.260409791,-0.729846954,-4.386546612,3.467538118,5.638997106
1.26517651,-0.4239254,-3.627840757,3.805935144,5.275043472
1.269942552,-0.32075882,-2.997652292,3.883985519,4.916721367
1.27470776,-0.624862671,-2.529792786,3.793068409,4.601920561
1.27947375,-1.256193161,-2.200814009,3.769726992,4.542295141
1.284240521,-1.848859787,-1.883168578,3.940000057,4.742173221
1.28900651,-1.842779636,-1.525315523,4.053288937,4.70654602
1.293771719,-1.280786514,-1.150774121,3.702344418,4.083142094
1.298537708,-0.64184475,-0.904245079,2.729561567,2.946206068
1.303304479,-0.014117241,-0.912607312,1.322510839,1.606887152
1.308070469,0.161712647,-1.19343245,-0.296121478,1.240209629
1.312835729,-0.52948761,-1.719337583,-1.82385838,2.561823226
1.317601719,-1.950595856,-2.349707603,-2.81188345,4.151221332
1.322368489,-3.719703674,-2.975014925,-2.903866053,5.578471769
1.327134479,-5.482993603,-3.668652534,-1.994789481,6.892127055
1.331899687,-7.320104599,-4.537192345,0.047303677,8.612333212
1.336665677,-8.88067627,-5.464003086,2.99704361,10.84914794
1.341432448,-9.66889286,-6.299087048,6.419381142,13.20509148
1.346198437,-9.006372452,-6.299206734,10.30930901,15.0690611
1.350963646,-6.077539444,-5.336303234,13.16614246,15.45185831
1.355729635,-2.453687668,-4.237878799,13.98214054,14.81487273
1.360496406,-0.056032181,-3.319892883,13.55677223,13.9574676
1.365262448,3.268436432,-2.369962454,11.69874763,12.37578664
1.370027656,4.996343613,-1.191901565,10.28859138,11.49953006
1.374793646,2.405471802,-0.276860595,7.785853386,8.153677656
1.379560416,1.130649567,0.434812188,1.734940171,2.115997987
1.384326406,3.702857971,1.919916868,-4.582998753,6.19686336
1.389091614,6.275835037,3.402265549,-7.894824505,10.64376673
1.393857604,6.232790947,3.8600564,-7.162583351,10.24940577
1.398624375,5.500463486,4.099299431,-5.161090851,8.584649856
1.403390416,5.953415871,4.56921196,-4.84469986,8.9326354
1.408155625,6.886271477,4.904959679,-5.687509537,10.18955981
1.412921614,7.173500061,4.88467598,-5.863803864,10.4739371
1.417688385,6.718204498,4.714231491,-4.437558651,9.330068436
1.422454375,6.280907631,4.594671249,-2.250103474,8.100849968
1.427219583,6.36011982,4.533565044,-0.95072341,7.868177116
1.431985573,6.821324348,4.35424757,-1.024652004,8.157196179
1.436752344,7.302279472,3.891429901,-1.911709785,8.492416998
1.441518333,7.283612251,3.253437757,-3.151153803,8.577041154
1.446283594,6.655168533,2.817388773,-4.498443604,8.51263429
1.451049583,5.656555176,2.877893448,-5.472757339,8.380331739
1.455816354,4.405753136,3.241851568,-5.646893501,7.861785325
1.460582344,2.998677254,3.45244503,-5.132529736,6.874176565
1.465347552,1.801129341,3.391992807,-4.55194664,5.955661199
1.470113541,1.156598091,3.232913733,-4.356958389,5.547299952
1.474880312,1.26685524,3.205188513,-4.472159386,5.646092912
1.479646302,2.15598011,3.458210707,-4.709111214,6.227615912
1.48441151,3.370042801,3.826668978,-4.996840477,7.139257573
1.489177552,4.178404808,3.844143152,-4.412154198,7.190522094
1.493944323,4.89956665,3.511279345,-3.051583529,6.756256214
1.498710312,5.492891312,2.754438877,-2.303901196,6.56252613
1.503475521,4.499957085,1.725639701,-2.206930637,5.300753624
1.50824151,1.924331665,1.120871067,-1.851904154,2.896368986
1.513008281,-0.627212524,0.806509376,-1.426322222,1.75449366
1.517774271,-2.307368279,0.258714885,-0.544469595,2.384812132
1.522539479,-3.298732758,-0.732589304,0.878784657,3.491502165
1.527305521,-3.780204773,-1.855212331,1.326430798,4.414881604
1.532072291,-3.860187531,-2.487808466,0.741275311,4.651852085
1.536838281,-3.54727602,-2.611189604,-0.41887331,4.424582823
1.541603489,-3.45865202,-2.678004742,-1.208327293,4.538065451
1.546369479,-4.595319271,-2.963727713,-0.931485653,5.546918665
1.55113625,-6.277703762,-3.295227528,-0.403891802,7.101494038
1.555902239,-7.093306065,-3.419374228,-0.326624394,7.881230521
1.5606675,-6.941415787,-3.469773531,-0.657698631,7.788141561
1.565433489,-6.370541096,-3.54404068,-1.023080111,7.361434039
1.57020026,-5.686810493,-3.61231184,-1.089322805,6.824605087
1.57496625,-5.182034969,-3.667542458,-0.622216225,6.378989507
1.579731458,-5.056251049,-3.754211426,0.368823052,6.308391914
1.584497448,-5.348395348,-3.933540821,1.672981977,6.846674001
1.589264219,-5.23709774,-4.044760227,2.751339436,7.166390076
1.594030208,-4.699870586,-4.189053059,3.408994913,7.159482899
1.598795416,-4.955844402,-4.000452518,3.807139874,7.420129925
1.603561458,-5.70794487,-3.198843241,3.296735525,7.3267795
1.608328229,-6.571393967,-2.514956236,1.918911219,7.293177894
1.613094219,-7.05824852,-1.680386186,0.742824793,7.293446276
1.617859427,-7.10967207,-1.224692941,-0.427086592,7.227012709
1.622625416,-7.058637619,-0.87937206,-1.218084097,7.216743665
1.627392187,-7.493628502,-0.323686779,-0.778930426,7.540953114
1.632158177,-7.858550549,-0.067731515,-0.199540615,7.861375245
1.636923437,-7.436677933,0.130750909,0.060922861,7.438076772
1.641689427,-6.725913048,0.092543766,0.265570641,6.731790136
1.646456198,-5.450222015,0.03655985,0.655450583,5.489614932
1.651222187,-3.532843113,0.0106599,1.878335714,4.001154727
1.655987396,-1.446228504,0.084869966,3.482194901,3.771532994
1.660753385,0.452997208,0.303701371,4.992150307,5.021852813
1.665520156,2.282830238,0.670023143,6.139753342,6.584589282
1.670286198,3.45494175,1.180509329,6.121669292,7.12776681
1.675051406,3.461472511,1.611270189,5.454610348,6.658134695
1.679817396,2.417629242,1.661957145,5.063325882,5.851863096
1.684584166,0.939265251,1.400756955,4.682592392,4.977048399
1.689350156,-0.077323914,1.166057587,3.817628622,3.992487643
1.694115364,-0.392512322,1.101391554,3.106585979,3.319338146
1.698881406,-0.103380203,1.222067118,2.824402332,3.079185613
1.703648177,0.797451019,1.478754163,2.406804323,2.935191485
1.708414166,4.913872719,1.766080379,-1.91554594,5.561879292
1.713179375,8.656148911,1.947566152,-4.47972393,9.939308546
1.717945364,7.424725533,2.37424469,-2.132475615,8.081524567
1.722712135,5.460579872,2.78583312,-0.546247244,6.15444431
1.727478125,4.572627068,2.546258688,0.29675889,5.242176785
1.732243385,4.032178879,1.92771709,0.334326506,4.481777984
1.737009375,3.81924057,1.212282658,0.072755098,4.007682757
1.741776146,3.744749069,0.657726705,-0.419058085,3.825096036
1.746542135,3.660804749,0.215546846,-0.969582796,3.793157346
1.751307344,3.436494827,-0.412648857,-1.229168415,3.672959402
1.756073333,3.167836189,-1.268993855,-1.179231405,3.610556499
1.760840104,3.129457474,-2.049339294,-0.911541939,3.850221335
1.765606146,3.196290016,-2.526649475,-0.322516918,4.087082651
1.770371354,3.224801064,-2.846554756,0.3885777,4.318936039
1.775137344,3.157546997,-3.15156889,1.053262234,4.583868545
1.779904114,2.753370285,-3.473604679,1.691845894,4.744398795
1.784670104,1.872324944,-3.844309807,2.038693905,4.737150137
1.789435312,0.645222664,-4.235348225,1.897157669,4.685476933
1.794201354,-0.534837723,-4.464950085,0.983247519,4.603108334
1.798968125,-1.044075012,-4.356485367,-0.464549065,4.503872025
1.803734114,-0.647798538,-4.131671429,-1.860741854,4.577413242
1.808499323,-0.215929985,-3.690185308,-2.913214922,4.70647581
1.813265312,-0.429328919,-3.049767494,-3.487368822,4.652649395
1.818032083,-0.696681023,-2.522107124,-3.785122633,4.601471736
1.822798073,-0.654709816,-1.956760287,-3.682202339,4.220920496
1.827563333,-0.144004822,-1.153584361,-2.973281622,3.192475195
1.832329323,1.039660454,-0.197668076,-1.816586494,2.102368431
1.837096094,2.829807281,0.531567335,-0.453991413,2.91487243
1.841862083,4.694043159,0.828211784,1.050658941,4.880969182
1.846627291,5.941758156,0.77779913,2.600200176,6.532266255
1.851393333,6.310046196,0.459952235,3.846249104,7.404179308
1.856160104,6.329704285,0.072508574,4.354251862,7.683093329
1.860926094,6.703788757,-0.029326797,4.093617439,7.85489322
1.865691302,7.342604637,0.001984954,3.510088682,8.138462346
1.870457291,7.662351608,-0.108858228,2.904257536,8.195010318
1.875224062,7.323801041,-0.358437896,2.50925231,7.750024939
1.879990052,6.344639778,-0.950496435,2.261859417,6.802492588
1.884755312,4.933734894,-1.931714296,1.754001856,5.581199032
1.889521302,3.565023422,-2.863336802,0.805998087,4.643029459
1.894288073,2.635540962,-3.399647474,-0.586346149,4.341368554
1.899054062,2.118819237,-3.558439732,-2.030373812,4.612407842
1.903819271,1.555612564,-3.446222305,-2.789104462,4.698455313
1.908585312,0.640263557,-3.198580027,-2.731746912,4.254796446
1.913352083,-0.664450645,-2.954423666,-2.351264477,3.833869911
1.918118073,-2.187404156,-2.806819677,-1.96356535,4.064303449
1.922883281,-3.388596535,-2.453943253,-1.596177101,4.477968881
1.927649271,-4.03072691,-1.827494264,-1.305830002,4.61429157
1.932416041,-4.287633419,-1.415259242,-1.206126928,4.673489192
1.937182083,-4.332487583,-1.251819372,-1.219032764,4.671567326
1.941947291,-4.264131069,-1.042221665,-1.085537672,4.521883658
1.946713281,-4.195728779,-0.730991125,-0.846520186,4.34224417
1.951480052,-4.295345783,-0.403423071,-0.703683853,4.371260292
1.956246041,-4.71118784,-0.191779971,-0.666591406,4.761975905
1.96101125,-5.365608215,-0.24039638,-0.846689463,5.437317812
1.965777291,-5.827259064,-0.348074317,-1.217099428,5.963173228
1.970544062,-5.938075542,-0.197361231,-1.449786663,6.115682625
1.975310052,-5.836608887,0.201276541,-1.239251137,5.970113812
1.98007526,-5.587312698,0.818602383,-0.518126726,5.670681472
1.984841302,-4.996399879,1.581833601,0.296931267,5.249226369
1.989608073,-3.88958168,2.293301344,0.698109627,4.568964188
1.994374062,-2.670912266,2.935270548,0.687691927,4.027717183
1.999139271,-1.674427032,3.528377056,0.41058588,3.927051222
2.00390526,-0.949747086,4.077184677,0.008867741,4.186350804
2.008672031,-0.804644585,4.580102921,0.047484636,4.650489271
2.013438073,-0.668956757,4.493109703,-0.330950499,4.5546752
2.018203281,-0.332375526,3.617013454,-1.66242218,3.994609784
2.022969271,-0.364140511,2.611985445,-3.02119112,4.010319446
2.027736041,-0.77624321,1.893624544,-3.983086109,4.478095844
2.032502031,-1.693083763,1.391101241,-4.119223118,4.665800509
2.037267291,-3.011731625,0.846029759,-3.624775648,4.788036365
2.042033281,-4.302093029,0.174466729,-3.127914906,5.321869477
2.046800052,-5.356964111,-0.495482802,-2.893324852,6.108510162
2.051566041,-6.224814415,-0.969920278,-2.825247288,6.904424819
2.05633125,-6.700455189,-1.16365993,-2.898333549,7.392600458
2.061097291,-6.755606174,-1.211393714,-3.024297714,7.500137744
2.065864062,-6.858509541,-1.364022255,-3.228867054,7.702291366
2.070630052,-7.35438776,-1.682177067,-3.487662315,8.311469632
2.07539526,-8.147874832,-2.161365986,-3.83295846,9.260180223
2.08016125,-8.95511055,-2.733521461,-4.318052292,10.3107575
2.084928021,-9.235307693,-3.265880346,-4.939283371,10.97056985
2.08969401,-9.087999344,-3.616583586,-5.062104225,11.01346031
2.094459271,-8.337328911,-3.642117977,-3.251960993,9.661849048
2.09922526,-6.273466587,-3.458464622,-0.432303429,7.176645931
2.103992031,-3.858590126,-3.588229656,1.122017384,5.387302928
2.108758021,-0.721580505,-4.178423882,-0.771561146,4.309896885
2.113523281,2.11448288,-4.829193115,-2.019931078,5.645552723
2.118289271,3.453757286,-4.682794571,-0.381833315,5.831192079
2.123056041,4.477772713,-3.798624516,1.819625735,6.147441296
2.127822031,5.072917938,-3.135703325,4.872289181,7.701060551
2.132587239,5.562979698,-2.638789177,8.034676552,10.12254804
2.137353281,6.081438065,-2.509646177,9.678529739,11.70282662
2.142120052,6.386910439,-2.718075991,8.582962036,11.03846907
2.146886041,6.321762085,-2.612772465,6.540654182,9.464217503
2.15165125,5.671816826,-2.346735954,4.988887787,7.909846844
2.156417239,4.393275261,-2.305110455,3.760942698,6.225680019
2.16118401,2.884039879,-2.445035219,2.768436909,4.686163267
2.165950052,1.861879349,-2.464256048,1.865551353,3.608245339
2.17071526,1.345625877,-2.388592005,1.172271609,2.981660862
2.17548125,1.344403267,-2.291862011,1.082679152,2.869189044
2.180248021,1.772279739,-2.025817156,1.647471189,3.155799731
2.18501401,2.368762016,-1.589021206,2.520166874,3.80621373
2.189779271,2.755414009,-1.122965813,3.3219347,4.459664643
2.19454526,3.295303345,-0.191084623,2.935742855,4.417479324
2.199312031,5.460777283,1.186585188,2.829271078,6.263612997
2.204078021,8.000134468,2.281773567,3.728405476,9.116449392
2.208843281,9.003748894,2.814483881,4.180254459,10.31810743
2.213609271,8.684311867,2.965710878,4.321024895,10.14317355
2.218376041,7.49795723,3.094769239,3.410826921,8.79947155
2.223142031,6.635342598,3.348257065,1.859223127,7.661286276
2.227907239,6.434195518,3.610476255,0.718865514,7.412906204
2.232673281,6.145417213,3.711843014,-0.195064068,7.182059682
2.237440052,5.597177505,3.727248669,-0.925150156,6.787980663
2.242206041,4.863996506,3.896775723,-0.947602391,6.304067999
2.24697125,4.397943497,3.857423067,-0.775384784,5.901088144
2.251737239,4.508854866,3.554029465,-0.467558861,5.760165703
2.25650401,4.916510582,3.209117174,0.071262956,5.871591586
2.261270052,5.704627037,3.174872637,0.402630687,6.541001251
2.26603526,6.9330616,3.635683537,0.261144042,7.832862448
2.27080125,7.36016655,4.142424107,-0.351007074,8.453102098
2.275568021,6.737552643,4.537730694,-1.204044819,8.2119023
2.280334062,6.419532776,4.65135622,-1.799888253,8.129275089
2.285099271,6.243181229,4.173256874,-1.662676215,7.691415799
2.28986526,5.618618011,2.845314503,-1.478685856,6.469249944
2.294632031,5.003605843,1.204994678,-1.253051996,5.297001313
2.299398073,5.010023117,-0.143097878,-0.325309038,5.022612329
2.304163281,3.976675034,-1.388589621,-0.602862895,4.255063939
2.308929271,2.00025177,-2.565445423,-0.809530079,3.352291203
2.313696041,0.302393913,-3.288443565,0.051089764,3.302713025
2.318462031,-1.687319279,-3.743503571,0.29410255,4.116717338
2.323227291,-3.389724731,-4.079705715,0.710808039,5.351586732
2.327993281,-4.249517441,-3.738500357,0.228661776,5.66454496
2.332760052,-4.051224232,-2.765424013,-0.793279886,4.968830921
2.337526041,-3.623855591,-1.964640141,-1.58678472,4.417015505
2.342291302,-3.242445469,-1.649077654,-2.241775751,4.272992891
2.347057291,-2.613017082,-1.621399641,-2.459479332,3.937744742
2.351824062,-2.19704628,-1.668536186,-2.874278545,3.984030938
2.356590052,-1.946990013,-1.690424681,-2.98251915,3.942553258
2.36135526,-1.570098877,-1.551422358,-2.134933233,3.070840557
2.366121302,-1.289961815,-1.161937714,-1.351250887,2.199995385
2.370888073,-1.386162758,-0.82118988,-1.421738148,2.148752981
2.375654062,-1.497412682,-0.574529171,-2.147164106,2.680045187
2.380419271,-1.063270569,-0.339846849,-2.875145674,3.084234561
2.385185312,-0.224366665,0.069776773,-3.767939329,3.7752584
2.389952083,0.625935555,0.87150979,-4.854685307,4.971850165
2.394718073,1.002256393,1.517529964,-5.757838726,6.038221747
2.399483281,0.710205078,1.73716414,-6.630558968,6.891040758
2.404249323,0.208573341,1.71870625,-7.255755424,7.459453116
2.409016094,-0.344408035,1.46226716,-7.450366974,7.600316453
2.413782083,-0.852020741,1.055636168,-7.135852337,7.263655804
2.418547291,-1.306277752,0.678885818,-6.439157486,6.605300648
2.423313281,-1.552639484,0.385065198,-5.437735558,5.668150719
2.428080104,-1.493848324,0.195471048,-4.171201706,4.434942549
2.432846094,-1.214455128,0.126348734,-2.781722069,3.037901073
2.437611302,-0.612030029,0.081125021,-1.347328186,1.482044286
2.442377291,0.044578552,-0.071967602,-0.023459435,0.087846048
2.447144062,0.505317688,-0.440152407,0.94532156,1.158754917
2.451910104,0.574462891,-1.046165943,1.507836342,1.92302918
2.456675312,0.285444737,-1.678849936,1.764168262,2.452000298
2.461441302,0.053858757,-2.092525482,1.87361908,2.809272524
2.466208073,-0.001862049,-2.27492857,1.88244915,2.952781446
2.470974114,-0.004923344,-2.292562008,1.879909039,2.964780395
2.475739323,-0.140507698,-2.173245668,1.747375965,2.792142889
2.480505312,-0.376576901,-1.944576263,1.290670872,2.364110468
2.485272135,-0.597708225,-1.643300295,0.528914452,1.826866574
2.490038125,-0.83647871,-1.309776306,-0.485443115,1.628147912
2.494803333,-0.985600948,-1.022623539,-1.378936768,1.979554177
2.499569323,-1.037315845,-0.776405096,-1.865878582,2.271636397
2.504336146,-0.997290611,-0.414973497,-2.006135464,2.278458046
2.509102135,-0.72584486,0.140893221,-1.901995182,2.040658554
2.513867344,-0.368668556,0.671589732,-1.800428391,1.956653179
2.518633333,-0.088512897,0.929191709,-1.842114925,2.065095437
2.523400156,0.131394863,0.928300262,-1.847561836,2.071832697
2.528166146,0.308247566,0.81684351,-1.54031086,1.770538739
2.532931354,0.428851605,0.726008654,-0.962931633,1.27993734
2.537697344,0.487239838,0.717973828,-0.334570408,0.929960448
2.542464114,0.355268955,0.661774397,0.181547642,0.772736002
2.547230156,-0.021752834,0.467378616,0.433052063,0.637534349
2.551995364,-0.446317196,0.23548162,0.484045506,0.699250087
2.556761354,-0.912499905,0.041059017,0.408363819,1.000551312
2.561528125,-1.627696037,-0.183548212,0.168112755,1.646616602
2.566294166,-2.193907738,-0.433485746,0.147349358,2.241172213
2.571059375,-2.377000809,-0.615943909,0.364358425,2.482393362
2.575825364,-2.448052883,-0.700420141,0.448524475,2.58548361
2.580592135,-2.325165749,-0.680614233,0.327501297,2.444767595
2.585358177,-1.95054245,-0.597496748,-0.139967442,2.044800503
2.590123385,-1.686105251,-0.538860083,-0.820813179,1.951167697
2.594889375,-1.602220058,-0.432655335,-1.397577286,2.169682471
2.599656146,-1.364500999,-0.192930698,-1.683342934,2.175483547
2.604422187,-0.925469875,0.120244503,-1.680821896,1.922528407
2.609187396,-0.361280918,0.504925013,-1.653737068,1.7664426
2.613953385,0.25746727,0.963894725,-1.619936466,1.902518486
2.618720156,0.843061924,1.39703846,-1.491537571,2.210690886
2.623486198,1.309021473,1.675268173,-1.182336807,2.432690074
2.628251406,1.680465698,1.798590064,-0.686644554,2.55545924
2.633017396,1.998766899,1.809898615,-0.223001003,2.705648085
2.637784166,2.249467373,1.680994511,0.111188889,2.810375237
2.642550208,2.320226192,1.33439517,0.252469063,2.688456933
2.647315416,2.146493912,0.811836481,0.123360634,2.298202
2.652081406,1.77568388,0.231221676,-0.007223606,1.7906895
2.656848177,1.288974762,-0.352921963,0.249866962,1.359574694
2.661614219,0.807195187,-0.82215929,0.779541969,1.391113097
2.666379427,0.392629147,-1.048382282,1.160045624,1.612131789
2.671145416,0.134710312,-1.076286554,1.172943115,1.597602944
2.675912187,0.035901546,-1.012397051,0.828594208,1.308741789
2.680678229,0.019748211,-0.893422365,0.159281254,0.907724646
2.685443437,0.016068935,-0.793651104,-0.62035656,1.007463422
2.690209427,-0.002837181,-0.749364138,-1.278322935,1.481777374
2.694976198,-0.042854309,-0.763041735,-1.774221659,1.931820819
2.699742239,-0.128555298,-0.827427864,-2.146878958,2.304398532
2.704507448,-0.288630962,-0.92787838,-2.602932692,2.778403268
2.709273437,-0.582995892,-1.171170712,-2.451090574,2.778375433
2.71404026,-0.794469833,-1.377582312,-2.110381603,2.642465866
2.71880625,-0.932339668,-1.453835964,-2.327945948,2.898659794
2.723571458,-1.171138763,-1.576724052,-2.53618288,3.207779348
2.728337448,-1.411087036,-1.714241743,-2.689362526,3.487472175
2.733104271,-1.483671665,-1.777668953,-2.822344065,3.650618377
2.73787026,-1.392819405,-1.740698099,-3.119796276,3.834462749
2.742635469,-1.268110752,-1.613286734,-3.285795689,3.873919497
2.74740151,-1.077762604,-1.366983891,-2.932673454,3.410394519
2.752168281,-0.921595097,-1.145037889,-2.16199851,2.614323402
2.756934271,-0.916883946,-1.066534281,-1.442267418,2.014523975
2.761699479,-1.009321213,-1.104591846,-0.951200068,1.773029618
2.766465521,-1.021276474,-1.101845741,-0.505158365,1.585009352
2.771232291,-0.900748253,-0.990486145,-0.327362478,1.378251215
2.775998281,-0.684801102,-0.854006767,-0.349701017,1.149160959
2.780763489,-0.415029526,-0.612938881,-0.361527979,0.823799769
2.785529531,-0.199105263,-0.313761711,-0.509605408,0.630703566
2.790296302,-0.137108803,-0.155767918,-0.370682478,0.424815216
2.795062291,0.332845688,0.059074879,1.293493986,1.336937839
2.799827552,1.464668274,0.576183319,2.485493183,2.941923985
2.804593541,2.500989914,1.039556503,2.513947248,3.695342885
2.809360312,3.007874489,1.200056553,3.395127535,4.691943696
2.814126302,2.970957756,1.152166605,4.534775734,5.542406412
2.818891562,2.465022087,0.983627081,5.122113705,5.768873801
2.823657552,1.777928352,0.810997725,5.481048584,5.818989613
2.828424323,1.083433151,0.579169273,6.046403885,6.169948491
2.833190312,0.339884758,0.220045567,6.407960892,6.420740182
2.837955573,-0.481904984,-0.176550865,5.716801167,5.739792522
2.842721562,-1.386021137,-0.449800015,3.833368301,4.100986123
2.847488333,-2.217227459,-0.444666863,1.714880705,2.838070129
2.852254323,-2.850656509,-0.171762466,0.159051418,2.860252128
2.857019583,-3.139807701,0.230739117,-0.750916719,3.236589078
2.861785573,-2.846878529,0.781144857,-1.400736094,3.267562738
2.866552344,-2.175843239,1.321647882,-1.768086195,3.099544437
2.871318385,-1.4569664,1.571220636,-1.891639471,2.858283623
2.876083594,-0.817149162,1.526150227,-1.853161812,2.535956618
2.880849583,-0.161180019,1.535429955,-1.795621157,2.368075058
2.885616354,0.715370178,1.82942915,-1.892592907,2.72772312
2.890382396,1.494843006,2.09103775,-1.881648779,3.185529252
2.895147604,2.494695663,2.115698338,-1.330302954,3.531202608
2.899913594,3.692688942,2.019278049,-0.593952179,4.250436996
2.904680364,4.500497818,1.961171389,0.051687479,4.909515803
2.909446406,4.874961853,1.969385624,0.585417509,5.290221778
2.914211614,4.905081749,1.921880722,0.73778677,5.31956594
2.918977604,4.828457832,1.615855455,0.651331186,5.133149735
2.923744427,4.676764011,1.137975693,0.257891655,4.820126389
2.928510416,4.543270588,0.812862873,-0.225914955,4.620940516
2.933275625,4.523419857,0.581457138,-0.676100969,4.610480683
2.938041666,4.554090977,0.289836884,-0.975869179,4.666483762
2.942808437,4.634494781,-0.024877071,-0.959946871,4.732933418
2.947574427,4.676227093,-0.35395956,-0.935488224,4.782000147
2.952339635,4.410204887,-0.709804535,-1.043199062,4.587155318
2.957105677,4.193857193,-0.957796097,-0.891026497,4.393146906
2.961872448,4.272795677,-0.954366684,-0.082186937,4.378852973
2.966638437,4.335799217,-0.804363728,1.091268778,4.542799071
2.971403698,4.121364594,-0.731386185,1.928256273,4.608551195
2.976169687,3.54761219,-0.812340736,1.943014741,4.125621893
2.980936458,2.743978024,-1.051738262,1.213288188,3.179251011
2.985702448,1.928429604,-1.413276672,0.178465605,2.397507385
2.990467708,1.167465687,-1.782794476,-0.39920783,2.168109583
2.995233698,0.276828289,-2.134999275,-0.121317864,2.156287047
3.000000469,-0.513432503,-3.142164707,0.557142735,3.232215959
3.00476651,-0.693374157,-4.497806549,0.271252632,4.559014089
3.009531719,-0.9607234,-5.203713417,-1.58103919,5.522798901
3.014297708,-1.447920322,-5.274839878,-2.579240084,6.047552266
3.019064479,-1.376456261,-4.732309818,-0.73310566,4.982653105
3.023830521,-1.060367107,-4.012942314,2.370171785,4.779727891
3.028595729,-0.850683212,-3.55963707,4.397583008,5.721312289
3.033361719,-0.734010696,-3.21680069,4.705164909,5.746751709
3.038128541,-0.649777889,-2.739736557,3.078801632,4.172216101
3.042894531,0.280384541,-1.857046604,0.21158886,1.889975509
3.047659739,2.540474892,-0.627895832,-1.84271121,3.200601577
3.052425781,4.546912193,0.320940495,-1.843064904,4.916736879
3.057192552,4.905068398,0.320614815,-0.876909614,4.993141327
3.061958541,3.912848949,-0.183300495,-0.166312575,3.920669056
3.066723802,2.220147133,-0.565958977,0.235971451,2.303268413
3.071489791,0.196403027,-0.817551613,0.556751609,1.008433013
3.076256562,-1.71292448,-0.947628975,0.813551486,2.119900226
3.081022552,-2.955612659,-0.95199728,0.658141255,3.174129003
3.085787812,-3.518181801,-0.871277809,0.082349896,3.625397869
3.090553802,-4.352431774,-0.364703178,0.00729692,4.367690923
3.095320573,-4.860585213,0.318052292,-0.533949375,4.900157937
3.100086614,-5.366713524,0.963488579,-1.602549553,5.6831408
3.104851823,-6.155554771,1.886436462,-2.360619068,6.857260346
3.109617812,-5.893850327,2.59503746,-3.45103693,7.306253964
3.114384583,-4.820973396,2.847723722,-3.618170738,6.66651891
3.119150625,-3.8987391,2.942605019,-2.91032958,5.68586925
3.123915833,-2.644882679,3.022744179,-2.373340607,4.665311607
3.128681823,-1.048635483,2.915186405,-2.310357094,3.864673085
3.133448646,-0.076956749,2.562355995,-2.26763773,3.422538745
3.138214635,0.461802483,1.974089146,-1.857229233,2.749470842
3.142979844,0.398069382,1.540598392,-1.388041019,2.111530372
3.147745885,0.627634049,1.575800419,-0.800863266,1.875754096
3.152512656,1.322949409,1.617502213,-0.812310696,2.241953883
3.157278646,1.487531185,1.515705585,-1.396226406,2.541566569
3.162043906,1.459743023,1.612821579,-1.210430622,2.489414676
3.166809896,1.661068439,1.688290119,-1.171934366,2.642518126
3.171576666,2.016136169,1.611692905,-1.783993006,3.137672723
3.176342708,2.543667316,1.543695927,-1.670166254,3.412139482
3.181107916,3.041995525,1.151219845,-1.359450102,3.525216091
3.185873906,2.796113491,0.497971058,-1.638687611,3.278951496
3.190640729,2.085332394,0.196487904,-1.955988646,2.865852451
3.195406719,1.735260963,0.226910114,-1.904651403,2.586564474
3.200171927,1.55437994,0.342651367,-1.633869171,2.281016314
3.204937916,1.272436619,0.42443943,-1.118939638,1.746788394
3.209704739,0.973186493,0.288741589,-0.412178993,1.095607219
3.214470729,0.709072113,-0.020543098,0.355184794,0.793323085
3.219235989,0.46543026,-0.270954132,1.023941278,1.156934402
3.224001979,0.229964256,-0.378387451,1.681043029,1.738380363
3.22876875,-0.115032196,-0.407052517,2.463252068,2.499306885
3.233534739,-0.50156498,-0.172665596,3.386672735,3.427963397
3.2383,-0.794262409,0.184233189,4.465206623,4.539037875
3.243065989,-1.113080502,0.551549912,5.229535103,5.375052828
3.24783276,-1.520534992,0.999180317,5.564388275,5.854297981
3.252598802,-2.049958706,1.250287056,5.711465836,6.195675137
3.25736401,-2.441754341,1.325976849,5.53233242,6.190886921
3.26213,-2.782738447,1.240907192,5.153695107,5.986990661
3.266896823,-3.288086414,0.987925053,4.679430008,5.80384126
3.271662812,-3.401554346,0.905073643,3.919941664,5.268365298
3.276428021,-3.036669493,1.122912884,3.517923355,4.781012412
3.281194062,-2.633476019,1.231970787,3.211140156,4.331785898
3.285960833,-2.374620199,1.146371365,2.41827774,3.577856289
3.290726823,-2.403764009,1.139375687,1.548533678,3.078021267
3.295492083,-2.657426357,1.089512348,0.972924948,3.032414047
3.300258073,-2.84308362,0.949225426,0.689069271,3.075543828
3.305024844,-2.847746134,0.933723927,0.291311741,3.011039844
3.309790833,-2.68981576,1.102570534,-0.199569941,2.913863203
3.314556094,-2.552575111,1.474964619,-0.650976181,3.019094287
3.319322083,-2.357339144,1.964414597,-0.831191063,3.179127416
3.324088854,-2.049569607,2.200377464,-0.645812273,3.075625148
3.328854896,-1.855998993,2.259728909,-0.589422703,2.983039746
3.333620104,-1.856388092,2.410841942,-0.96874547,3.193243399
3.338386094,-1.768194199,2.417192459,-1.195244312,3.224583551
3.343152916,-1.675116062,2.040813923,-1.50584054,3.039488612
3.347918906,-1.708314419,1.695530415,-2.722823143,3.634133653
3.352684166,-1.433114529,1.502282143,-4.235808372,4.717281151
3.357450156,-0.854769707,1.296672821,-5.508896828,5.72362961
3.362216927,-0.317805767,1.101201057,-6.399355412,6.501184043
3.366982916,0.226061344,0.764750481,-6.909667015,6.955533429
3.371748177,0.74063921,0.234924793,-6.28040123,6.328283788
3.376514166,1.106926918,-0.313484669,-4.517617702,4.661805395
3.381280937,1.348556519,-0.803031445,-1.985528946,2.530966096
3.386046979,1.631780148,-1.347609997,0.816463709,2.268341275
3.390812187,1.901666164,-2.041214466,2.404255152,3.682843132
3.395578229,2.011361599,-2.8126297,2.956293583,4.549300282
3.400345,2.225598812,-3.428006172,3.17892766,5.177846797
3.405110989,2.579193592,-3.891430855,2.937142372,5.515639491
3.40987625,3.026193142,-4.490464687,1.673074007,5.667565145
3.414642239,3.63629961,-5.029778957,0.045135498,6.20672123
3.41940901,4.429233551,-5.13929224,-0.747319698,6.825607761
3.424175,5.113489151,-4.835711479,-1.097287178,7.12291485
3.42894026,5.440145969,-4.160247326,-1.461779118,7.002831154
3.43370625,5.189231873,-3.28710556,-1.112602711,6.24268173
3.438473021,4.242424488,-2.355707169,-0.573047161,4.886297663
3.443239062,2.766206741,-1.509086132,-0.608057976,3.209201644
3.448004271,1.154980183,-0.835276604,-0.920960903,1.697007723
3.452770312,-0.221409798,-0.214741707,-1.580566406,1.610380844
3.457537083,-1.021239281,0.340842247,-1.666039467,1.983630664
3.462303073,-1.302526951,0.750824928,-0.911070347,1.757943033
3.467068333,-1.573665142,1.023177624,-0.499417305,1.942352201
3.471834323,-1.727584362,1.029909134,-0.145776272,2.016559266
3.476601094,-1.518912554,0.816189289,1.128715992,2.06088818
3.481367135,-1.278816223,0.317982197,2.701313972,3.005591587
3.486132344,-1.222220659,-0.510354042,3.47193861,3.715998157
3.490898333,-1.065467834,-0.973500729,3.453620911,3.743049929
3.495665156,-0.857834816,-0.987400532,2.543161631,2.85980969
3.500431146,-0.754333973,-0.960547924,0.782812357,1.450678201
3.505196354,-0.620429516,-0.82956171,-1.089968681,1.503707798
3.509962396,-0.430435658,-0.494767666,-2.424435139,2.511564381
3.514729166,-0.192252636,-0.04257679,-2.698635101,2.70580954
3.519495156,0.006549835,0.312307358,-1.926371098,1.951533856
3.524260416,0.103214264,0.504206657,-0.867274761,1.008485522
3.529026406,0.203761101,0.615086079,0.066720009,0.651383934
3.533793177,0.246009827,0.771143913,0.737855434,1.095269105
3.538559219,0.265440464,0.878671169,0.809444189,1.223814348
3.543324427,0.348610878,1.202165127,0.64763689,1.409313336
3.548090469,0.162896156,1.783519745,0.751326561,1.942155874
3.552857239,-0.304003239,2.200761318,1.078080416,2.469418096
3.557623229,-0.72650218,2.470076084,1.469107866,2.964348023
3.562388489,-0.947369099,2.668952465,1.663914204,3.28472616
3.567154479,-0.732514858,2.974440098,1.375459671,3.357940026
3.57192125,-0.296698093,3.353755474,0.48624754,3.40178515
3.576687239,-0.03391552,4.02536869,-0.911346912,4.127383742
3.5814525,-0.616287708,5.118663788,-2.057418823,5.550991058
3.586218489,-1.604652643,5.818611145,-1.876560211,6.320808808
3.590985312,-1.649214506,5.743113518,-1.029354095,6.063236035
3.595751302,-1.071252584,5.112596512,-0.407011032,5.239454473
3.60051651,-0.668093681,4.083370686,0.083441734,4.138505509
3.605282552,-0.64559269,2.767259121,0.448935509,2.876813524
3.610049323,-0.932960987,1.433562756,0.451764584,1.769070269
3.614815312,-1.268464088,0.202720642,0.108243942,1.289113476
3.619580573,-1.453841448,-0.922203064,-0.202725411,1.733554452
3.624346562,-1.499592543,-1.900140762,-0.277357101,2.436439959
3.629113333,-1.382294655,-2.830367565,-0.008603096,3.149887788
3.633879375,-1.155203819,-3.741024971,0.501085997,3.947258653
3.638644583,-0.828048229,-4.569556236,1.331947803,4.831210306
3.643410625,-0.124841213,-5.19778347,1.932287931,5.546735525
3.648177396,0.81506443,-5.472303867,1.702816963,5.788784436
3.652943385,1.890243053,-4.850874901,1.007008076,5.302647581
3.657708646,3.004385948,-3.195652485,0.049514771,4.386454313
3.662474635,3.253643036,-1.894079685,-1.314235687,3.987599065
3.667241406,2.60827446,-1.585069656,-2.768326283,4.120579071
3.672007448,1.855914116,-1.637266636,-3.38275671,4.191431999
3.676772656,1.206152439,-1.661306858,-2.600513935,3.313218512
3.681538698,0.618622303,-1.60771656,-0.724813938,1.86890378
3.686305469,0.115455389,-1.666680813,1.163206577,2.035731913
3.691071458,-0.099509001,-1.830878735,2.21547699,2.875822886
3.695836719,0.124676943,-1.874198914,2.385692835,3.036395266
3.700602708,0.607239008,-1.841491699,1.806194305,2.649937501
3.705369479,1.086681843,-1.746043205,0.981776714,2.278909787
3.710135521,1.467163086,-1.490269661,0.41293931,2.131663683
3.714900729,1.854870081,-1.062199593,0.109202862,2.140265464
3.719666771,2.081218481,-0.569595337,-0.129753113,2.161653322
3.724433541,1.904253483,-0.249082565,-0.436822891,1.969527276
3.729199531,1.63734293,0.145943642,-0.858284473,1.854411943
3.733964791,1.550694942,0.60494709,-3.905741215,4.24563661
3.738730781,1.602423668,0.430270195,-6.127828598,6.348478351
3.743497552,1.683795452,-0.350156784,-4.087698936,4.434755855
3.748263594,1.700115204,-1.117288589,-1.197624207,2.360726422
3.753028802,1.840708494,-1.591079712,1.302561522,2.759784218
3.757794844,2.181814432,-1.618078232,2.792689562,3.895844757
3.762561614,2.507978916,-1.237380028,3.296561003,4.323006133
3.767327604,2.652746677,-0.74424839,3.300929546,4.29966353
3.772092864,2.492241383,-0.479312897,2.717641592,3.71841146
3.776858854,1.985199213,-0.69430542,1.526448011,2.598676483
3.781625625,1.421673536,-1.119681358,0.199490786,1.820614886
3.786391666,1.039672136,-1.263802528,-0.795135021,1.819438013
3.791156875,0.81117034,-0.977370262,-1.425590038,1.909334153
3.795922916,0.648155928,-0.397989273,-1.806402683,1.959998016
3.800689687,0.586423159,0.260673523,-1.830466747,1.939703926
3.805455677,0.52145958,0.850167275,-1.591868877,1.878497008
3.810220937,0.351667881,1.454185486,-1.363704681,2.024355745
3.814986927,0.22679472,2.256938457,-1.129756451,2.53407906
3.819753698,-0.003665209,3.103072166,-0.959659815,3.248079011
3.824519739,-0.441645622,3.827908039,-0.910855532,3.959493479
3.829284948,-0.893048763,4.508425236,-0.797178507,4.664646586
3.834050989,-1.296051145,5.180662155,-0.380047798,5.353825293
3.83881776,-1.691070914,5.682449341,0.215048075,5.932638285
3.84358375,-2.08737874,5.851817131,0.881845951,6.27523434
3.84834901,-2.61102581,5.539346695,1.762193203,6.372373378
3.853115,-3.136521339,4.822650909,2.570578098,6.301079246
3.857881823,-3.431153059,3.881629467,2.97721529,5.975254766
3.862647812,-3.45364356,2.911931038,2.817140579,5.323840461
3.867413021,-3.240931273,2.068128586,2.125041485,4.392788713
3.872179062,-2.941329241,1.225115299,1.093585014,3.368716875
3.876945833,-2.321146488,0.32720089,-0.020421028,2.344183965
3.881711875,-1.385629535,-0.551556587,-0.992414475,1.791387832
3.886477083,-0.689990282,-1.568775177,-1.711240053,2.42187627
3.891243073,-0.375981093,-3.055923462,-2.395827055,3.901284053
3.896009896,-0.404387951,-5.099654198,-3.384387732,6.133847314
3.900775885,-0.443045616,-7.27230835,-4.384687424,8.503425307
3.905541146,0.350010395,-8.659315109,-4.810831547,9.912131234
3.910307135,1.776705503,-8.57672596,-4.176267147,9.703510598
3.915073906,2.655698776,-7.306900024,-2.599056721,8.197476428
3.919839948,2.583072186,-5.715033531,-0.794071198,6.321741789
3.924605156,1.988393068,-4.218607903,0.682075739,4.713341378
3.929371198,1.446127415,-2.429976463,1.655864,3.276882009
3.934137969,0.849810362,-0.352517128,2.099820614,2.292529735
3.938903958,0.484484196,1.722462654,2.321201324,2.930798205
3.943669219,0.566854239,3.659124851,2.68679285,4.574863301
3.948435208,0.510936022,5.233500004,3.089913368,6.099027999
3.953202031,-0.05575037,6.141191959,3.357313395,6.999207099
3.957968021,-1.104204774,6.069084167,3.473767519,7.079555889
3.962733281,-1.940489769,5.412178516,3.469607592,6.715307415
3.967499271,-2.003203154,4.913804054,3.136404037,6.164034673
3.972266041,-1.555580378,4.620640755,2.273516655,5.379500839
3.977032083,-1.208145857,4.168391705,1.096786976,4.476387772
3.981797291,-1.201634049,3.411101818,-0.084990978,3.617563195
3.986563333,-1.370050073,2.588330269,-1.14819169,3.145605656
3.991330104,-1.496963978,2.08580637,-1.963035583,3.231872223
3.996096094,-2.093307972,1.231946945,-2.373009682,3.395704123
4.000861354,-5.570576668,-0.406488419,-2.173095226,5.993237865
4.005627344,-6.750029564,-0.464987755,-1.934179306,7.037056367
4.010394166,-3.346853256,-0.239433289,-1.455878258,3.657640841
4.015160156,-0.628850699,-1.418517113,-0.474860907,1.622694328
4.019925416,0.523219585,-2.809640884,0.312271833,2.874952927
4.024691406,0.382306099,-4.313876152,1.010046721,4.447007959
4.029458177,0.801879644,-5.024138451,-0.575317383,5.120153145
4.034224219,2.000131607,-4.835366249,-3.627950191,6.367363332
4.038989427,2.757312298,-3.747035027,-2.15266943,5.126112394
4.043755469,2.735614777,-2.721076965,0.689485312,3.91959667
4.048522239,2.528246403,-2.14180088,0.75055027,3.397450013
4.053288229,2.453037024,-1.38833046,0.522227764,2.866631114
4.058053489,2.219724178,-0.849662781,0.393527508,2.409142206
4.062819479,1.993354082,-0.46790123,0.318256855,2.072119563
4.067586302,1.629209518,-0.20037365,0.289649725,1.666844389
4.072352291,1.179875851,-0.038653374,0.136806727,1.18840952
4.077117552,0.56126976,-0.007111549,-0.069689274,0.565624357
4.081883541,1.30652833,0.817435265,-0.356130362,1.581785549
4.086650364,1.238694191,1.002563477,-0.805962563,1.785797434
4.091416354,-2.091058016,-0.290266991,-1.230132103,2.443359069
4.096181614,-4.240436077,-0.33092308,-1.1060009,4.394774875
4.100947604,-3.182016373,1.055158138,-0.300711393,3.365860103
4.105714375,-0.785715818,2.306029797,0.559953451,2.499734113
4.110480416,0.841585159,2.827883244,0.992996216,3.113074157
4.115245625,1.49033308,2.966159344,0.802453041,3.415131744
4.120011666,1.747634411,2.848051071,0.144760847,3.344634007
4.124778437,1.320878506,2.722260952,-0.521493912,3.070403983
4.129544479,0.630666494,3.021995068,-0.962142229,3.23356028
4.134309687,0.180285692,3.58701992,-0.962976694,3.718405432
4.139075729,-0.276355743,3.939723492,-0.682760477,4.007986472
4.1438425,-0.548630118,4.241117001,-0.425682783,4.297589353
4.148608489,-0.559302926,4.556131363,-0.242013454,4.596707873
4.15337375,-0.946881056,4.230436325,-0.304005861,4.345755952
4.158139739,-1.672799587,3.21335125,-0.375675917,3.642117119
4.162906562,-2.260704517,2.050122738,0.302137137,3.066769474
4.167672552,-2.675766945,0.99447012,2.975017786,4.12303655
4.172437812,-2.45976305,0.277991295,4.660273552,5.276917945
4.177203802,-1.174621344,0.020933151,2.797173977,3.033868118
4.181970625,-0.338418961,-0.497475624,2.01969862,2.107413558
4.186736614,0.611258268,-1.111339569,0.283330917,1.299610987
4.191501875,1.54164958,-1.443684578,-1.657579899,2.684861209
4.196267864,1.238817215,-1.444913864,0.236523867,1.91791233
4.201034635,0.972253323,-1.206699371,1.925024509,2.471258638
4.205800677,0.800730705,-1.472482681,2.073955774,2.666583481
4.210565937,0.606726408,-2.156956673,1.422840238,2.654251941
4.215331927,0.45452404,-2.870808601,-0.00639677,2.906574452
4.220098698,0.359967232,-3.497907639,-1.89530611,3.994636342
4.224864739,0.465477943,-3.823669434,-3.578333139,5.257526577
4.229629948,0.567905426,-3.874150276,-4.560299397,6.010647845
4.234395989,0.428195953,-3.989984512,-4.423851013,5.972753634
4.23916276,0.294394732,-4.258096695,-3.539148808,5.54469386
4.243928802,0.418152094,-4.591197014,-2.626818657,5.306045368
4.24869401,0.646947384,-4.847403526,-2.073209763,5.311690935
4.253460052,0.802321911,-4.947479248,-1.818533182,5.331822793
4.258226823,1.049545765,-4.662119865,-1.62313199,5.046926333
4.262992864,1.316286087,-4.001840591,-1.428833485,4.448471907
4.267758073,1.47276926,-3.426785469,-1.304159403,3.951295951
4.272524114,1.539419889,-3.188576698,-1.210222483,3.741854275
4.277290885,1.352751493,-3.155785561,-1.041524172,3.587992713
4.282056927,1.053534031,-3.05581665,-0.932179213,3.364061153
4.286822135,0.768022537,-2.802624702,-0.75382328,3.002134804
4.291588177,0.464239836,-2.515822411,-0.349865437,2.582108993
4.296354948,0.131962061,-2.204666138,0.16083312,2.214460218
4.301120937,-0.126951456,-1.792294502,0.73836112,1.942579059
4.305886198,-0.292012453,-1.323940277,1.290512562,1.871767027
4.310652239,-0.443203211,-0.768367767,1.730308533,1.944424267
4.31541901,-0.441230655,0.026939392,1.931179285,1.981126864
4.320185,-0.167301893,1.026856422,1.715398312,2.006244104
4.32495026,-0.05264926,1.91970253,1.201583862,2.265355055
4.329716302,-0.246227264,2.614831448,0.822165966,2.752077078
4.334483073,-0.727858305,3.127570152,0.947561741,3.348036144
4.339249114,-1.462096691,3.547515869,0.95926404,3.955095836
4.344014323,-2.015524864,3.828531742,0.328597546,4.339121124
4.348780364,-2.261554718,3.590565205,-0.089398384,4.244382205
4.353547135,-2.23032999,2.960870266,0.722820282,3.776717326
4.358313177,-1.887313604,2.315979481,2.064227819,3.631356508
4.363078385,-1.264021873,1.817816734,2.426901579,3.285127128
4.367844427,-0.591874719,1.419877052,1.82147336,2.384141717
4.372611198,-0.014052153,1.116571426,1.178418398,1.623452843
4.377377239,0.398076057,0.854868412,0.924160957,1.320355264
4.382142448,0.484793663,0.464891434,0.965271235,1.175966622
4.386908489,0.40410614,0.054125786,1.024431705,1.102584098
4.39167526,0.546202183,-0.06286335,1.109576225,1.238324685
4.396441302,0.964752436,0.152292252,0.965254307,1.373191927
4.40120651,1.003365517,-0.006707191,0.025717735,1.003717464
4.405972552,0.821742773,-0.836907387,-0.828418255,1.435949847
4.410739323,1.099571705,-1.389864922,-0.454314709,1.829531166
4.415505364,1.551151991,-1.046504021,0.317301273,1.897873353
4.420270573,1.620506048,-0.340725899,0.607062817,1.763706113
4.425036614,1.230044365,0.241390228,0.864643097,1.522788911
4.429803385,0.884230375,0.617706299,0.974329472,1.453527553
4.434569427,0.568733215,0.505579472,0.374705315,0.848217039
4.439334687,0.007718325,-0.123267174,-0.207615852,0.241575476
4.444100677,0.136490822,-0.202552795,-0.224945545,0.332051017
4.4488675,0.715579987,0.369688988,-0.183272839,0.826022759
4.453633489,0.534934044,0.581692696,-0.114386559,0.79850179
4.45839875,-0.11831665,0.37473011,-0.032836914,0.394334564
4.463164739,-0.549523115,0.132073402,-0.096408367,0.573335513
4.467931562,-0.587093115,0.155111313,-0.113912582,0.61783001
4.472697552,-0.325287342,0.369402885,-0.03311491,0.493322353
4.477462812,0.004900694,0.129622459,0.00219965,0.129733717
4.482228802,-0.223340988,-0.097696304,-0.127079487,0.274909005
4.486995625,-0.481344461,0.027201653,-0.132098675,0.499882467
4.491761614,-0.529615641,-0.179246903,0.244103432,0.610089063
4.496526875,-0.679188252,-0.635000229,0.699215412,1.163367596
4.501292916,-0.419568062,-0.886200905,0.774682283,1.249608756
4.506059687,0.077296495,-0.559165001,0.28379488,0.631806759
4.510825729,0.332118034,-0.087866783,-0.196055412,0.395551116
4.515590937,0.259148598,0.090121269,-0.177381516,0.326717066
4.520356979,0.062288046,0.056922913,0.106569767,0.135930622
4.52512375,-0.04022193,-0.151051521,0.385046482,0.415566071
4.529889791,0.035665989,-0.385396957,0.450390339,0.593847064
4.534655052,0.177980661,-0.517211914,0.243868828,0.598880026
4.539421041,0.370230436,-0.506324768,-0.049268723,0.62917625
4.544187864,0.547183037,-0.345938683,-0.168259621,0.668875286
4.548953854,0.607089043,-0.205877304,0.153541565,0.659179477
4.553719114,0.684936047,-0.329854965,0.50453043,0.912410347
4.558485104,0.811763525,-0.337241173,-0.032491684,0.879629092
4.563251927,0.84359932,-0.115431786,-0.371740341,0.92907222
4.568017916,0.679563522,0.077391624,0.030802727,0.684649438
4.572783177,0.353757858,0.301403046,0.202988148,0.507141604
4.577549219,-0.03041029,0.57130003,0.218755722,0.612505164
4.582315989,-0.463185072,0.880338669,0.321412563,1.045391132
4.587082031,-0.982421279,1.140451431,0.436124802,1.567158537
4.591847239,-1.399381995,1.308714867,0.495698452,1.979070874
4.596613281,-1.640414715,1.354183197,0.547809601,2.1965582
4.601380052,-1.734790087,1.24543047,0.428146839,2.17805037
4.606146094,-1.566109657,0.972346306,0.121171475,1.847387161
4.610911354,-1.2470963,0.651541233,-0.352442741,1.450507169
4.615677344,-0.919520021,0.387606144,-0.76919508,1.259927245
4.620444166,-0.64315629,0.218482018,-1.013941765,1.220435294
4.625210156,-0.470630765,0.132303238,-1.049040794,1.157360813
4.629975416,-0.411565542,0.095757484,-0.794017792,0.89945536
4.634741458,-0.413535237,0.118451119,-0.481510639,0.645673722
4.639508229,-0.347381353,0.176548004,-0.257728577,0.467190563
4.644274271,-0.289273024,0.126674652,-0.124973774,0.339623017
4.649039531,-0.258054972,-0.028634071,-0.092569351,0.275647172
4.653805521,-0.181904554,-0.100388527,-0.13399744,0.247229523
4.658572344,-0.163206816,-0.107409477,-0.110946655,0.224682934
4.663338333,-0.253805876,-0.140000343,0.073774338,0.299098933
4.668103594,-0.411920071,-0.237868309,0.342383862,0.586076945
4.672869635,-0.591376782,-0.354660034,0.662565231,0.956296462
4.677636406,-0.672653914,-0.384601593,0.954371691,1.229311595
4.682402448,-0.673232436,-0.289331436,1.174072742,1.383980274
4.687167656,-0.655887485,-0.164731979,1.228337049,1.402190046
4.691933698,-0.628108621,-0.07329464,1.04351902,1.220173958
4.696700521,-0.616824746,0.113636971,0.847563744,1.054395764
4.70146651,-0.620656729,0.424244881,0.757740021,1.067412026
4.706231771,-0.733671784,0.681129932,0.716566086,1.231129249
4.710997812,-1.024867773,0.764685154,0.602249622,1.413436219
4.715764583,-1.3379426,0.69659853,0.343465805,1.547032214
4.720530625,-1.566942096,0.575160503,0.095943928,1.671921761
4.725295833,-1.675781846,0.507894993,-0.04437685,1.751619657
4.730061875,-1.654998541,0.499380589,-0.084638596,1.730770012
4.734828698,-1.526851416,0.503706932,-0.050906181,1.608597948
4.739594687,-1.206591725,0.603887558,0.021431923,1.349445479
4.744359948,-0.688796759,0.837362289,0.183065891,1.099604337
4.749125937,-0.303814888,1.012205601,0.422782421,1.138248057
4.75389276,-0.411487103,0.870045662,0.540618181,1.103888177
4.758658802,-0.474982858,0.590415001,0.515991211,0.916758157
4.76342401,-0.216689587,0.402905464,0.569565058,0.730541953
4.768190052,-0.011685371,0.245306969,0.617895603,0.664911297
4.772956875,0.047492027,0.148697853,0.558580399,0.579981557
4.777722864,0.01427412,0.113124847,0.506736994,0.519406741
4.782488125,-0.0225389,0.088355064,0.507911682,0.516031875
4.787254166,-0.000612974,0.076771736,0.425941229,0.432805044
4.792020937,0.011078358,0.011464119,0.225318909,0.225882196
4.796786979,-0.037354469,-0.100358009,-0.031264544,0.11155518
4.801552239,-0.028923512,-0.143860817,-0.212277412,0.258058528
4.806318229,-0.006498337,-0.269638062,-0.305924416,0.407843917
4.811085052,0.025207996,-0.453601837,-0.47018218,0.653805286
4.815851041,0.078085184,-0.571204186,-0.607228756,0.837316117
4.820616302,0.149228096,-0.643932343,-0.605263472,0.896248714
4.825382344,0.29525137,-0.631054878,-0.489148855,0.851275651
4.830149114,0.467805147,-0.602048874,-0.464846611,0.892965214
4.834915156,0.628264904,-0.602326393,-0.556435823,1.033022119
4.839680416,0.776307583,-0.569718361,-0.663443089,1.169354183
4.844446458,0.89263916,-0.494679451,-0.762091637,1.273693877
4.849213229,0.926557064,-0.382002831,-0.754766464,1.254634039
4.853979271,1.013448238,-0.198287964,-0.568004608,1.178568913
4.858744531,1.077156782,-0.032095909,-0.517377853,1.195398145
4.863510521,1.077620745,0.07113266,-0.786390543,1.335940272
4.868277344,1.122837543,0.185626984,-1.006271601,1.519145833
4.873043333,1.188767195,0.313711166,-1.124373198,1.666072395
4.877808594,1.249065638,0.426671982,-1.214937449,1.793958459
4.882574635,1.303860664,0.498197556,-1.263497591,1.882731951
4.887341458,1.365166187,0.540257454,-1.353658676,1.996984889
4.892107448,1.440101147,0.622215271,-1.447093248,2.134273184
4.896872708,1.521417856,0.722499847,-1.527096987,2.273487086
4.90163875,1.599731684,0.805280685,-1.600885868,2.40217693
4.906405521,1.741901159,0.901659966,-1.685263872,2.585986207
4.911171562,1.911748171,0.985395432,-1.711215258,2.748461912
4.915936823,2.051612139,1.08536005,-1.605256081,2.822049945
4.920702864,2.173484564,1.149126053,-1.454145432,2.856407669
4.925469635,2.334462643,1.258044243,-1.370531797,2.985087696
4.930235677,2.656774282,1.529893875,-1.051259756,3.241014028
4.935000937,3.458709717,1.545178413,1.597635865,4.11128807
4.939766927,3.004633665,1.041130543,1.516402721,3.522960897
4.94453375,1.776935577,0.506212235,-1.239755869,2.225027076
4.949299791,1.691579103,0.240571976,-0.316790342,1.737720018
4.954065,2.201693773,-0.259910584,2.317761898,3.207339894
4.958831041,1.998502016,-0.697802544,1.698851466,2.714228252
4.963597864,1.310573816,-0.672632217,-0.250052929,1.494176795
4.968363854,1.18849349,-0.621290207,-0.340732575,1.383696854
4.973129114,0.970497131,-0.583361626,-0.961411238,1.485424867
4.977895156,0.641381502,-0.475995064,-1.686389685,1.865972052
4.982661927,0.406276941,-0.316265106,-1.874311447,1.943740716
4.987427969,0.198147535,-0.154374123,-1.688508987,1.707090043
4.992193229,0.012178659,-0.037941933,-1.414482117,1.41504331
4.996959271,-0.101414681,0.059732437,-1.067575932,1.074044352
5.001726041,-0.257188201,0.12473011,-0.739646673,0.792956854
5.006492083,-0.421269178,0.143140793,-0.551098108,0.708283935
5.011257344,-0.524161816,0.177537918,-0.411771298,0.689797741
5.016023385,-0.568152666,0.20680809,-0.176818848,0.629945984
5.020790156,-0.522229075,0.243318558,0.169228554,0.600471008
5.025556198,-0.377235651,0.337582588,0.586905718,0.775065844
5.030321458,-0.245701909,0.468346596,0.986660719,1.119471901
5.0350875,-0.189668655,0.590450287,1.298334837,1.438846444
5.039854271,-0.146780014,0.68735981,1.499980688,1.656487231
5.044620312,-0.138377667,0.740172386,1.622299433,1.788535431
5.049385573,-0.22376132,0.73947525,1.69639492,1.864040906
5.054151562,-0.313973069,0.754606247,1.684412837,1.872232967
5.058918385,-0.341785908,0.785345078,1.575149059,1.792952609
5.063684427,-0.326200128,0.797891617,1.393563986,1.638614701
5.068449687,-0.26484251,0.830267906,1.200208426,1.483235186
5.073215729,-0.158036232,0.889302254,1.034045219,1.372983418
5.0779825,-0.07045579,0.931715965,0.936196923,1.322695482
5.082748541,-0.069037676,0.954960823,0.854484081,1.283300206
5.087513802,-0.124845743,0.95892334,0.72006321,1.205658101
5.092279791,-0.134978771,0.953052521,0.540638447,1.104001044
5.097046614,-0.109023094,0.965958595,0.330989122,1.026896218
5.101812656,-0.130478621,0.964083672,0.141808987,0.983153999
5.106577916,-0.211096525,0.933115959,0.009074926,0.956738988
5.111343958,-0.32442236,0.911424637,-0.012403011,0.967521871
5.116110729,-0.508536816,0.877576828,0.062734365,1.01621178
5.120876771,-0.717888832,0.829252243,0.131421804,1.104669792
5.125642031,-0.806990504,0.847719193,0.226967096,1.192214564
5.130408073,-0.764394164,0.947225571,0.399291515,1.281002902
5.135174844,-0.707681894,1.067903519,0.593019843,1.411702562
5.139940885,-0.701567054,1.149960518,0.776851177,1.555025169
5.144706146,-0.71970284,1.212629795,0.948161244,1.6992507
5.149472187,-0.723867178,1.306140423,1.082992196,1.844683873
5.154238958,-0.726067424,1.406506062,1.152782679,1.958147367
5.159005,-0.778734684,1.487457275,1.171971798,2.047553357
5.16377026,-0.853061199,1.575314522,1.17416513,2.141960085
5.168536302,-0.91770196,1.698796749,1.140366554,2.24243688
5.173303073,-1.001157165,1.848269939,1.032707691,2.341986894
5.178069114,-1.107899904,2.023710251,0.877924323,2.468521115
5.182834375,-1.149414062,2.244186401,0.71929431,2.622004881
5.187600416,-1.164025903,2.50480938,0.554738283,2.817225744
5.192367239,-1.18270576,2.714603424,0.315454483,2.977813996
5.197133229,-1.155206442,2.892681122,0.011624575,3.114842071
5.201898489,-1.084089994,3.06526947,-0.270079017,3.262525205
5.206664531,-0.976632595,3.201211929,-0.536421776,3.389589557
5.211431354,-0.87356174,3.283758163,-0.787041426,3.487923737
5.216197396,-0.705639839,3.293791771,-1.004993677,3.515253064
5.220962604,-0.527729511,3.174138546,-1.128343463,3.409811273
5.225728646,-0.404268503,2.860595703,-1.076610208,3.08310401
5.230495469,-0.237200499,2.456397057,-0.89632225,2.62555597
5.23526151,-0.10298276,2.000165939,-0.650892854,2.105927525
5.240026771,-0.015782833,1.4993577,-0.413025737,1.555285463
5.244792812,0.053346157,0.958993912,-0.271826983,0.998200904
5.249559583,0.076040983,0.340994835,-0.311089277,0.467799366
5.254325625,0.064666271,-0.337753296,-0.549489975,0.648227004
5.259090885,0.062393904,-1.093997002,-0.940807581,1.444244212
5.263856927,0.164595366,-1.920723915,-1.479124308,2.429831416
5.268623698,0.327899218,-2.777462959,-2.194269896,3.554805024
5.273389739,0.489914894,-3.724253654,-3.048765659,4.837877007
5.278155,0.662703991,-4.806661606,-4.021873951,6.3022728
5.282921041,0.858173847,-5.986571312,-5.176455975,7.960602671
5.287687864,1.136360645,-7.206748009,-6.493836403,9.767212684
5.292453854,1.423952579,-8.517471313,-7.938724518,11.73023041
5.297219114,1.643359661,-9.889867783,-9.364146233,13.71850394
5.301985156,2.043828487,-11.2712431,-10.44036293,15.49901074
5.306751979,2.772514343,-12.7642765,-10.70657253,16.88917659
5.311518021,3.514166832,-14.33976078,-9.94342041,17.80027295
5.316283281,4.041527271,-15.70540905,-8.351092339,18.24101311
5.321049323,4.404349327,-16.60285568,-6.351528168,18.31379316
5.325816094,4.59528923,-17.0131588,-4.410773754,18.16643004
5.330582135,4.510192871,-16.98209572,-2.87266326,17.80408967
5.335347396,4.010993004,-16.54125214,-1.915477991,17.12805135
5.340113437,3.235702515,-15.61489773,-1.464145422,16.013698
5.34488026,2.2641747,-14.55069923,-1.336479187,14.78632855
5.349646302,0.853355885,-14.24447346,-0.911066771,14.29906581
5.35441151,-0.886455417,-15.19604588,0.380580902,15.22663637
5.359177552,-1.089340806,-15.49222851,-0.699500322,15.54622489
5.363944375,1.182116747,-12.78225708,-8.71966362,15.51824828
5.368710416,2.904963732,-8.805490494,-18.40470123,20.60845711
5.373475677,1.662891865,-7.048068047,-16.62924767,18.13759495
5.378241719,-0.748298526,-7.353705406,-5.149076462,9.008325166
5.383008489,-1.890061975,-7.073289871,3.103888273,7.952225241
5.387774531,-2.110282898,-5.851941109,5.772181511,8.486258778
5.392539791,-2.194496393,-4.881897926,6.832177639,8.679135503
5.397305833,-1.815626383,-4.056952477,8.040527344,9.187243467
5.402072656,-1.138899922,-2.991630554,9.053368568,9.602626143
5.406838698,-0.765492678,-1.819722176,9.563490868,9.765128028
5.411603958,-0.80066371,-0.636836052,9.644652367,9.698759808
5.41637,-0.927442789,0.487316132,9.519011497,9.576492418
5.421136771,-1.020794749,1.427889824,9.396637917,9.559168133
5.425902812,-1.028606892,2.191226006,9.205528259,9.518469104
5.430668073,-0.896794677,2.864647865,8.738044739,9.239257218
5.435434114,-0.817331195,3.499445915,7.892547131,8.67216537
5.440200937,-0.871736407,4.180577755,6.830201626,8.055359022
5.444966979,-0.98134017,4.947633266,5.809659958,7.693780104
5.449732239,-1.170210719,5.79501152,4.921368599,7.692296181
5.454498281,-1.467304587,6.667047501,4.130931854,7.979166818
5.459265052,-1.767740965,7.587164402,3.427621603,8.511084633
5.464031094,-1.976653814,8.595528603,2.793243408,9.251620453
5.468796354,-2.076183319,9.6988554,2.340576649,10.19100742
5.473562396,-2.248780966,10.77497292,2.07674408,11.20133577
5.478329219,-2.585402727,11.70187759,1.872965574,12.12956085
5.48309526,-3.039984465,12.43686295,1.667256832,12.91111191
5.487860521,-3.475691319,12.95872974,1.488811612,13.49909874
5.49262651,-3.782133579,13.28703785,1.328180194,13.87854358
5.497393333,-3.959448099,13.50337219,1.211793661,14.12397726
5.502159375,-4.055716515,13.66055679,1.290038824,14.30817419
5.506924635,-4.181139946,13.74927998,1.581096649,14.45767954
5.511690677,-4.338129997,13.79134369,1.98346889,14.59296685
5.5164575,-4.500454426,13.84681225,2.467235565,14.76738131
5.521223541,-4.713096619,13.87050056,2.919326782,14.93742061
5.525988802,-5.048825264,13.62855816,3.088320732,14.85819501
5.530754844,-5.069273949,12.76532745,3.024282932,14.06404674
5.535521614,-4.196922779,11.50627899,2.932572603,12.5939906
5.540287656,-3.159776211,10.44020176,2.846328497,11.27313552
5.545052916,-2.653666973,9.686504364,2.755747318,10.41462714
5.549818958,-2.395525694,9.103760719,2.543815374,9.751307566
5.554585781,-2.236894608,8.612756729,2.148821831,9.15427284
5.559351823,-2.108798504,8.246582031,1.602775812,8.66152623
5.564117083,-1.976153612,7.98798275,1.002202272,8.289599563
5.568883125,-1.863602638,7.817436218,0.493382454,8.051630274
5.573649948,-1.842986107,7.722782135,0.131496906,7.94073379
5.578415937,-1.937981844,7.68001318,-0.109787822,7.921516865
5.58318125,-2.119434595,7.665179729,-0.280591846,7.957745602
5.587947239,-2.300698757,7.630530834,-0.37143147,7.978482119
5.592714062,-2.41226697,7.557007313,-0.363350272,7.940995837
5.597480104,-2.42316103,7.482927322,-0.254245162,7.869596641
5.602245364,-2.374334335,7.451286316,-0.070641279,7.82074942
5.607011406,-2.368798494,7.407016754,0.146574259,7.777955227
5.611778229,-2.439769268,7.233037472,0.387629986,7.643269075
5.616544271,-2.507862329,6.936855316,0.678363204,7.407395749
5.621309531,-2.600811958,6.557176113,0.953853488,7.118329713
5.626075573,-2.6391747,6.130145073,1.115797997,6.766751575
5.630842396,-2.495988369,5.696577072,1.176071882,6.329620316
5.635608385,-2.37445879,5.227833271,1.120437026,5.850100374
5.640373646,-2.374407768,4.716841698,0.822567463,5.344438706
5.645139687,-2.437092543,4.149540424,0.330697417,4.82363624
5.64990651,-2.434813738,3.454548836,-0.178454876,4.230138501
5.654672552,-2.257072687,2.622642517,-0.659822226,3.522498582
5.659437812,-1.880121708,1.532121181,-1.216777563,2.7134481
5.664203854,-1.237551093,-0.027125359,-1.832964897,2.21179312
5.668970677,-0.358439326,-2.111883163,-2.499124289,3.291527222
5.673736719,0.48294735,-4.874319077,-3.442585468,5.986954093
5.678501979,1.014334559,-8.49006176,-4.756276131,9.784282596
5.683268021,1.186730742,-12.95991135,-6.227106094,14.42721325
5.688034844,1.254013419,-18.12718582,-7.517891884,19.66433609
5.692800885,1.477418661,-23.69277573,-8.642217636,25.26298306
5.697566146,2.174465656,-29.26774597,-9.730707169,30.91950707
5.702332187,3.530896425,-34.3056221,-10.82696819,36.14645456
5.707098958,5.336647987,-38.15726852,-11.78799915,40.2916105
5.711865,7.415699005,-40.38015366,-11.76291847,42.70732551
5.71663026,9.238371849,-40.6788063,-10.82181835,43.09552818
5.721396302,11.55556011,-37.79734802,-10.8245945,40.97977956
5.726163125,13.72015476,-31.99899292,-12.94992256,37.14671841
5.730929166,13.38142014,-25.75958252,-15.47419357,32.8948197
5.735694427,11.05783463,-20.78255653,-15.21742058,28.03141544
5.740460469,8.166516304,-17.57300949,-11.95979118,22.77145705
5.745227291,5.605002403,-15.56448746,-7.736383438,18.26255597
5.749993333,3.740142822,-14.1368351,-3.939511299,15.14458729
5.754758594,2.349863052,-13.09950829,-1.213696957,13.36383306
5.759524635,1.451771379,-12.28671455,0.430372477,12.37966943
5.764291458,1.099034786,-11.5788126,1.198499203,11.69244111
5.7690575,1.08406651,-10.87325573,1.473652363,11.0260846
5.77382276,1.032142401,-10.01739025,1.654976964,10.20550705
5.778588802,0.709984779,-8.889763832,1.932847619,9.125123522
5.783355573,0.223723054,-7.416893959,2.282015324,7.763244292
5.788121614,-0.163692713,-5.551765442,2.595747232,6.13080733
5.792886927,-0.233270884,-3.410064697,2.896394253,4.480184841
5.797652969,0.027417064,-1.138492584,3.215718985,3.411416956
5.802419739,0.441952586,1.063966751,3.616101265,3.795199032
5.807185781,0.722156882,3.087121487,4.066588402,5.156449444
5.811951041,0.707520008,4.928672314,4.44043541,6.671571177
5.816717083,0.443418145,6.502621651,4.740244389,8.05919505
5.821483906,0.070632577,7.835527897,5.073476315,9.334915549
5.826249948,-0.344083309,8.965859413,5.397004128,10.47056263
5.831015208,-0.831568062,9.90336132,5.522155762,11.36935685
5.83578125,-1.324606657,10.74379349,5.514165878,12.1486504
5.840548073,-1.877467871,11.503932,5.47910881,12.87967276
5.845314114,-2.558217764,12.15764427,5.293265343,13.50449741
5.850079375,-3.312708139,12.77682877,4.998428345,14.11402403
5.854845416,-4.070180416,13.32101536,4.647997856,14.68399479
5.859612239,-4.660630226,13.78062153,4.166363716,15.13226984
5.864378281,-4.855517864,14.28931618,3.68379879,15.53483132
5.869143541,-4.725696087,14.8227272,3.158382416,15.87516377
5.873909583,-4.549986362,15.23225784,2.552681208,16.10093899
5.878676406,-4.539025307,15.48914623,1.989908576,16.26272234
5.883442448,-4.627969742,15.61973572,1.387377739,16.34989495
5.888207708,-4.768268585,15.64812851,0.75540638,16.37592593
5.89297375,-5.087814808,15.54593277,0.223644018,16.35884782
5.897740573,-5.539471626,15.27059746,-0.119548321,16.2447279
5.902506614,-6.106852055,14.69380569,-0.229918957,15.91396967
5.907271875,-6.531179428,13.45781231,0.117150068,14.95936967
5.912037916,-5.656561852,11.81665993,1.007154822,13.13942558
5.916804739,-3.702941418,10.57393265,1.902439833,11.36393876
5.921570781,-2.279500246,9.762613297,2.507981062,10.33415254
5.926336041,-1.624811888,9.095306396,2.921770573,9.690271172
5.931102083,-1.355158806,8.560052872,3.212794304,9.242997771
5.935868906,-1.226189852,8.171187401,3.461855888,8.958587572
5.940634948,-1.12093091,7.902274609,3.692434311,8.794117422
5.945400208,-1.075253725,7.758039474,3.908960104,8.753474519
5.95016625,-1.124832392,7.714504719,4.077714443,8.798101275
5.954933073,-1.286289692,7.726136684,4.270422935,8.921000016
5.959699114,-1.544865012,7.850304604,4.499031067,9.179061543
5.964464375,-1.945010185,8.031967163,4.696853638,9.505577059
5.969230416,-2.409211159,8.216158867,4.813980103,9.82262538
5.973997239,-2.772012234,8.424438477,4.831542015,10.09945611
5.978763281,-3.026044369,8.628062248,4.781098366,10.31791182
5.983528541,-3.219014645,8.805529594,4.672451019,10.47526636
5.988294583,-3.355816364,8.959224701,4.601453781,10.61614749
5.993061406,-3.450720072,9.098748207,4.560984612,10.74696555
5.997827448,-3.520515919,9.202541351,4.477124214,10.82245078
6.002592708,-3.648348808,9.23236084,4.290743828,10.81468531
6.00735875,-3.838591576,9.219312668,3.992987633,10.75520625
6.012125573,-3.830725193,9.232674599,3.739737749,10.67250553
6.016891614,-3.601599455,9.272274971,3.531104088,10.55534452
6.021656875,-3.307265043,9.294914246,3.31703186,10.4084645
6.026422916,-3.076758385,9.145191193,3.09287858,10.13246574
6.031189739,-2.988608837,8.758788109,2.880275249,9.692478395
6.035955781,-2.935217857,8.288927078,2.684258223,9.193859809
6.040721041,-2.845306158,7.826479912,2.590840816,8.721353741
6.045487083,-2.840674877,7.282968521,2.614341736,8.242927086
6.050253906,-3.073510885,6.634539604,2.520989418,7.734272595
6.055019948,-3.297021151,5.91948843,2.308984518,7.158358837
6.059785208,-3.233847618,5.125920296,2.090828896,6.411270917
6.06455125,-3.141819477,4.17988348,1.773388505,5.521536229
6.069318073,-3.382640839,3.055521011,1.270754457,4.732154328
6.074084114,-3.779318571,1.858507633,0.559371471,4.248552215
6.078849375,-3.975952625,0.58189106,-0.484607697,4.047424008
6.083615416,-3.954303026,-0.891446114,-1.893601179,4.474026601
6.088382239,-3.64372015,-2.585252762,-3.525762796,5.691329517
6.093148281,-2.952570915,-4.537649155,-5.31873703,7.589262049
6.097913541,-1.948515654,-6.755667686,-6.840447903,9.809560982
6.102679583,-0.760793388,-9.165060043,-7.499936581,11.86702073
6.107446406,0.525458455,-11.57193947,-7.104718208,13.5890732
6.112212448,2.027625322,-13.94710064,-6.059268951,15.34104367
6.116977708,3.778731108,-16.34025955,-5.130264282,17.53860036
6.12174375,5.29178381,-18.66470718,-4.585134029,19.93483695
6.126510573,6.050772667,-20.87466049,-4.20426178,22.13682718
6.131276614,6.318174839,-22.79545212,-4.068823814,24.00223527
6.136041875,6.746776581,-23.99714661,-4.619736671,25.35200202
6.140807916,7.125329018,-24.3638401,-6.00464344,26.08491443
6.145574739,7.27380991,-23.67503548,-8.245393753,26.10368046
6.150340781,8.295474052,-21.53889275,-10.91040039,25.52989673
6.155106041,8.999345779,-19.39342117,-13.81170177,25.4530178
6.159872083,8.884744644,-18.44964218,-16.23738861,26.13390084
6.164638906,9.069270134,-18.1880188,-17.42512703,26.7710803
6.169404948,8.798344612,-18.27287674,-17.45842743,26.76014911
6.174170208,8.076725006,-18.59755707,-15.90258217,25.7680953
6.17893625,7.138392925,-18.92584991,-13.0518446,24.07270437
6.183703073,5.812202454,-19.24429321,-10.12231445,22.50746029
6.188469114,3.936596394,-19.6930809,-7.907972336,21.58356442
6.193234427,1.791517258,-20.02533722,-6.631249905,21.17066697
6.198000469,-0.05048503,-20.0116539,-6.209338188,20.95291677
6.202767239,-1.397688389,-19.67181015,-6.288730621,20.69980145
6.207533281,-2.240717888,-18.90815353,-6.493120193,20.11714932
6.212298594,-2.387619019,-17.45327377,-6.578624725,18.80414298
6.217064635,-1.770845771,-15.34636211,-6.385007858,16.71571267
6.221831458,-0.828071237,-13.18846512,-5.730829239,14.40360087
6.2265975,-0.017542988,-11.53418636,-4.631630898,12.42939128
6.23136276,0.514333069,-10.4473114,-3.372990847,10.99035583
6.236128802,0.820154905,-9.797912598,-2.175435305,10.06996843
6.240895625,1.129166365,-9.375100136,-1.172711372,9.515396534
6.245661666,1.598786116,-8.95877552,-0.49819541,9.113943962
6.250426927,2.015603065,-8.44630909,0.018620253,8.683498124
6.255192969,2.18378377,-7.806733131,0.640778065,8.13170279
6.259959791,2.197499037,-6.982745171,1.327174425,7.439699193
6.264725833,1.979534149,-5.948143959,1.998522758,6.579746592
6.269491094,1.569965839,-4.714961052,2.685522556,5.648688508
6.274257135,1.14709425,-3.321639061,3.318721294,4.833531038
6.279023958,0.718981206,-1.873558044,3.843180895,4.335572985
6.28379,0.300607801,-0.418628693,4.271067619,4.302049935
6.28855526,-0.112468779,0.957058907,4.604861736,4.70461078
6.293321302,-0.348525584,2.274973869,4.801809311,5.324880172
6.298088125,-0.400955021,3.635279655,4.759989738,6.002793134
6.302854166,-0.535775721,4.987331867,4.533204079,6.760952152
6.307619479,-0.853062868,6.2423172,4.227980614,7.58749368
6.312385521,-1.280421019,7.402357101,3.764518976,8.402735969
6.317152344,-1.738256693,8.507928848,3.220803976,9.26174756
6.321918385,-2.25697732,9.561205864,2.708342791,10.19047226
6.326683646,-2.790831089,10.56669521,2.185661077,11.14544303
6.331449687,-3.213219881,11.51229382,1.704035759,12.07316979
6.33621651,-3.424339771,12.32133484,1.302681327,12.85450791
6.340982552,-3.470480919,12.98665524,0.97743237,13.4778643
6.345747812,-3.409871817,13.52506924,0.781242847,13.97014903
6.350513854,-3.262238979,13.87456703,0.747503281,14.27251115
6.355280677,-3.149471283,13.99490356,0.842195511,14.36961337
6.360046719,-3.1308496,13.90586662,1.078431964,14.29469696
6.364811979,-3.100765705,13.68225479,1.495305419,14.10867756
6.369578021,-3.03070879,13.39637756,2.052689314,13.88746417
6.374344844,-2.983339548,13.04867458,2.679424047,13.65091706
6.379110885,-2.81843996,12.73029327,3.276080132,13.44383397
6.383876198,-2.522453308,12.41742134,3.69115901,13.19771868
6.388642187,-2.234439135,12.00728607,3.840834141,12.80311071
6.393409062,-1.973439455,11.57176304,3.777969599,12.33179701
6.398175104,-1.760850668,11.13946915,3.560666084,11.82652573
6.402940364,-1.577559471,10.70065212,3.2184937,11.2850056
6.407706406,-1.425982714,10.24316311,2.819344997,10.71935275
6.412473229,-1.351382136,9.764512062,2.459531546,10.15978469
6.417239271,-1.384369731,9.305354118,2.182368279,9.657578688
6.422004531,-1.536318779,8.920685768,2.02618432,9.276008455
6.426770573,-1.763684034,8.639162064,2.01713872,9.045139642
6.431537396,-2.008749962,8.482278824,2.116503477,8.970157046
6.436303437,-2.209058285,8.43564415,2.297554016,9.017692897
6.44106875,-2.395642996,8.42028141,2.493020296,9.102493866
6.445834791,-2.563806534,8.438599586,2.690634966,9.220769135
6.450601562,-2.651703358,8.495311737,2.875978231,9.352705651
6.455367604,-2.683504343,8.554472923,2.998886824,9.453757176
6.460132916,-2.692862034,8.611248016,3.00459528,9.509610461
6.464898958,-2.646467924,8.667925835,2.881683111,9.510038291
6.469665781,-2.55407238,8.707661629,2.683338165,9.462925577
6.474431823,-2.427893639,8.720808029,2.433932543,9.373963293
6.479197083,-2.244423866,8.750281334,2.167510509,9.289938844
6.483963125,-2.027987719,8.843701363,1.93495822,9.277276071
6.488729948,-1.795774817,8.976888657,1.729697585,9.31671567
6.493495989,-1.545914054,9.1281147,1.590373278,9.393700837
6.49826125,-1.269393206,9.306787491,1.57697916,9.524416821
6.503027344,-1.007135153,9.515201569,1.670312643,9.713049286
6.507794114,-0.844811201,9.681667328,1.858102918,9.894490117
6.512560156,-0.843733072,9.729824066,2.08275032,9.985950668
6.517325469,-0.938412905,9.741282463,2.351002455,10.06481075
6.52209151,-1.066045523,9.811893463,2.700568676,10.23243752
6.526858333,-1.128332734,9.953708649,3.09957099,10.48602837
6.531624375,-1.11558497,10.09512138,3.506436348,10.74481742
6.536389635,-1.102096677,10.19803238,3.867786407,10.9624018
6.541155677,-1.12839818,10.23154163,4.132959843,11.0922984
6.5459225,-1.256508112,10.12889862,4.359053612,11.09841197
6.550688541,-1.424309969,9.921391487,4.586548805,11.02266292
6.555453802,-1.538852811,9.659296989,4.779673576,10.88647628
6.560219844,-1.5599581,9.364125252,4.962485313,10.71198261
6.564986719,-1.552384615,8.999962807,5.085112572,10.45311429
6.56975276,-1.652063847,8.499866486,5.107513428,10.05304624
6.574518021,-1.984712601,7.83046627,5.032948017,9.517659999
6.579284062,-2.458368778,7.018207073,4.905237198,8.908431935
6.584050885,-2.895332336,6.067872047,4.701459885,8.204007897
6.588816927,-3.209121704,5.012896061,4.341338634,7.367143963
6.593582187,-3.423377037,3.860370636,3.864144564,6.446207024
6.598348229,-3.590220451,2.579154491,3.316135883,5.526163043
6.603115052,-3.616126537,1.224205017,2.72898984,4.692806687
6.607881094,-3.433680296,-0.147058487,2.031077623,3.992125109
6.612646406,-3.18079567,-1.740213394,1.031004071,3.769452632
6.617412448,-2.915946007,-3.662573814,-0.352235317,4.694811794
6.622179271,-2.527118206,-5.827894211,-2.373234749,6.781070751
6.626945312,-1.887842894,-8.352954865,-5.296328545,10.06910631
6.631710573,-1.129112124,-11.58355522,-9.235795975,14.8577782
6.636476614,-0.150227368,-15.5161047,-13.01852703,20.25473079
6.641243437,1.188652277,-19.49903488,-14.53833008,24.35135103
6.646009479,2.636070013,-22.46708679,-12.79201412,25.98758318
6.650774739,3.946351051,-23.74738312,-8.81760788,25.63712348
6.655540781,4.402277946,-24.17857742,-4.656808853,25.01338694
6.660307656,4.0356884,-24.53657913,-1.258385897,24.89807285
6.665073646,3.771543264,-24.64839935,0.876055241,24.95066336
6.669838958,3.679651737,-24.01815605,1.10680604,24.32358273
6.674605,3.542046785,-22.11671638,-1.150200367,22.42806724
6.679371823,3.782081842,-19.47321701,-5.711022377,20.64282201
6.684137864,4.453010559,-17.2492981,-11.05606079,20.96673718
6.688903125,4.929076672,-15.94427586,-15.6648407,22.88892666
6.693669166,5.031289577,-15.3955698,-18.90740204,24.89633098
6.698435989,4.233923435,-15.18597031,-20.56821823,25.91508061
6.703202031,2.828206062,-14.95276642,-20.51199722,25.54067351
6.707967344,1.705824614,-14.93111801,-18.87252617,24.12509827
6.712733385,0.640351951,-15.33691978,-16.43321419,22.48736729
6.717500208,-0.233390391,-15.77909565,-14.26862335,21.27505448
6.72226625,-0.688784123,-15.99662018,-12.92469788,20.57702835
6.72703151,-1.007546544,-16.02555084,-12.15700626,20.14016463
6.731797552,-1.372053981,-15.94025898,-11.53950596,19.72649452
6.736564375,-1.526483178,-15.80535793,-10.9218998,19.27245146
6.741330416,-1.325342178,-15.62986183,-9.949771881,18.57544275
6.746095729,-0.825421572,-15.35279083,-8.265855789,17.45605566
6.750861771,-0.172528014,-15.07347202,-6.228048325,16.31036206
6.755628594,0.417737126,-14.83667755,-4.438517094,15.49199597
6.760394635,0.987260938,-14.52032089,-3.073995829,14.87494045
6.765159896,1.556223035,-14.18456745,-2.061465263,14.41781616
6.769925937,1.927487969,-13.82758045,-1.310764074,14.0226707
6.77469276,2.038598061,-13.30655289,-0.712510109,13.48064918
6.779458802,1.976050496,-12.66053963,-0.133641005,12.81451908
6.784224062,1.602028966,-12.07662964,0.486572743,12.19213817
6.788990104,0.8751055,-11.41864586,1.299132824,11.5255815
6.793756979,0.108174205,-10.35428238,2.234329224,10.59316253
6.798523021,-0.400307298,-8.757228851,3.002519608,9.266306011
6.803288281,-0.682852864,-6.785887718,3.591849089,7.708173586
6.808054323,-0.860967636,-4.679796219,4.13640213,6.304885447
6.812821146,-0.87956208,-2.57062149,4.636228561,5.373670959
6.817587187,-0.815156221,-0.542020798,5.014759064,5.109410404
6.822352448,-0.668092549,1.363078117,5.209843159,5.42649015
6.827118541,-0.431642771,3.118404388,5.198036671,6.077034362
6.831885364,-0.199611992,4.695226192,4.96338892,6.835219347
6.836651406,-0.113623709,6.071817875,4.562371254,7.595729992
6.841416666,-0.331522584,7.219275475,4.16881752,8.343074081
6.846182708,-0.816827416,8.194939613,3.82222414,9.079297312
6.850949531,-1.5326612,9.120740891,3.506912708,9.891177963
6.855715573,-2.384801865,10.01091099,3.211908817,10.78062971
6.860480833,-3.159729481,10.91572666,2.96381259,11.74398416
6.865246927,-3.702112913,11.85665226,2.789259434,12.7305071
6.87001375,-3.855425358,12.7786808,2.714297295,13.62080752
6.874779791,-3.690726995,13.64365196,2.807738304,14.41020815
6.879545052,-3.472334385,14.38960457,2.994628906,15.10250403
6.884311094,-3.237545729,15.00483513,3.231156111,15.68652764
6.889077916,-2.965944529,15.50155067,3.526297569,16.17187914
6.893843958,-2.720607519,15.83930016,3.767235756,16.50688341
6.898609271,-2.60893774,16.02074242,3.851048231,16.68236543
6.903375312,-2.761268377,16.00312042,3.81372261,16.68139522
6.908142135,-3.149481297,15.69828987,3.715307236,16.4365156
6.912908177,-3.642575979,15.05164814,3.513133287,15.87962773
6.917673437,-3.623965979,14.06350708,3.191029072,14.8693654
6.922439479,-2.841824293,13.00444794,2.816063166,13.60594882
6.927206302,-2.063024998,12.03231812,2.476868153,12.45662985
6.931972344,-1.544003963,11.08959579,2.199734926,11.41060546
6.936737656,-1.117596388,10.21205521,1.979974031,10.46209302
6.941503698,-0.781826437,9.464166641,1.807911158,9.666966719
6.946270521,-0.46497941,8.812243462,1.602440834,8.968815825
6.951036562,-0.114260256,8.229766846,1.263721466,8.327010849
6.955801823,0.201228559,7.769110203,0.842921972,7.817293888
6.960567864,0.450537086,7.506477833,0.482029676,7.535419413
6.965334687,0.562218964,7.417593479,0.265276432,7.443598241
6.970100729,0.486749888,7.420973778,0.266574025,7.441695974
6.974866041,0.232326388,7.545331001,0.473227024,7.563725225
6.979632083,-0.083315581,7.836177349,0.891111255,7.887122175
6.984398906,-0.304548591,8.224225998,1.47808063,8.361540854
6.989164948,-0.505629838,8.611528397,2.055988312,8.867985724
6.993930208,-0.696297348,8.98391819,2.557033062,9.366644763
6.998696302,-0.869520187,9.296150208,2.959002495,9.794394815
7.003463125,-1.051585913,9.517361641,3.299669266,10.12787356
7.008229166,-1.194565058,9.695578575,3.662447929,10.43286894
7.012994427,-1.234109879,9.876378059,4.080376148,10.7571065
7.017760469,-1.249371529,10.02401066,4.526570797,11.06939755
7.022527291,-1.292782307,10.05492115,4.814177513,11.22270157
7.027293333,-1.299443841,9.974090576,4.778286934,11.13566626
7.032058646,-1.312018156,9.836669922,4.529350281,10.90855081
7.036824687,-1.313525438,9.66178894,4.127776146,10.58839225
7.04159151,-1.241871357,9.497159004,3.622231007,10.24006011
7.046357552,-1.095031857,9.304282188,3.116559029,9.87328223
7.051122812,-0.93092078,9.054262161,2.654709101,9.481231839
7.055888854,-0.759397864,8.825860023,2.24943924,9.139609793
7.060655677,-0.647545576,8.685773849,1.894453526,8.913525498
7.065421771,-0.624218583,8.657627106,1.597569108,8.825892759
7.070187031,-0.665413737,8.719650269,1.38784492,8.854444634
7.074953073,-0.749751091,8.821470261,1.356153011,8.956540362
7.079719896,-0.83910656,8.934399605,1.561716437,9.108597826
7.084485937,-0.90484798,9.022632599,1.922556877,9.269459198
7.089251198,-0.985166669,9.009823799,2.287232637,9.347668768
7.094017291,-1.132430434,8.927325249,2.626464605,9.374318701
7.098784114,-1.30797112,8.818380356,2.970922232,9.396861149
7.103550156,-1.556728482,8.644872665,3.270013809,9.372844674
7.108315416,-1.866263151,8.394995689,3.499669552,9.284749741
7.113081458,-2.080724716,8.085662842,3.695560217,9.130417529
7.117848281,-2.23324728,7.690746307,3.814370155,8.870422305
7.122614375,-2.373580694,7.148186207,3.794067621,8.43358764
7.127379635,-2.510582209,6.364832401,3.585013866,7.72440541
7.132145677,-2.641565323,5.359967232,3.262106895,6.807970144
7.1369125,-2.675867558,4.257996559,2.950461149,5.830610849
7.141678541,-2.578158855,3.06598568,2.643569231,4.799544723
7.146443802,-2.344512463,1.728834152,2.325265884,3.727260072
7.151209896,-1.899504423,0.217821121,1.888494015,2.687372832
7.155976719,-1.194155931,-1.524297714,1.180408955,2.267786853
7.16074276,-0.389660418,-3.624117851,0.254343987,3.653868676
7.165508021,0.234558106,-6.189188004,-0.947922707,6.265750003
7.170274062,0.596522033,-9.070918083,-2.425392151,9.408502564
7.175040885,0.801248729,-11.9820385,-3.936359406,12.63749071
7.179806927,1.055886149,-14.80750465,-5.31703949,15.7685763
7.184572239,1.469753623,-17.3626709,-6.601241112,18.63327402
7.189338281,1.818448901,-19.6632576,-7.707812309,21.19813262
7.194105104,1.997336149,-21.60243607,-8.275243759,23.21926474
7.198871146,2.318538189,-22.71475792,-8.153068542,24.24475971
7.203636406,3.215792418,-22.58174515,-7.496195793,24.00977897
7.2084025,4.704084396,-21.24816322,-6.25644207,22.64411442
7.213169323,6.276218891,-19.50116348,-4.864236832,21.05580919
7.217935364,7.230539799,-18.25370407,-4.172271729,20.07202704
7.222700625,7.241758347,-17.8000927,-4.57309103,19.7534687
7.227466666,6.622386456,-17.69006348,-6.124282837,19.85701862
7.232233489,5.619194984,-17.56247711,-8.501180649,20.30482768
7.236999583,4.529151917,-17.34394073,-10.91650581,20.98798696
7.241764844,3.606122971,-17.15530968,-12.77796078,21.69297247
7.246530885,2.653734684,-17.24617386,-13.95353317,22.34220017
7.251297708,1.39217782,-17.44664001,-14.38798428,22.65695254
7.25606375,0.329991341,-17.34025383,-14.24278259,22.44215126
7.260829062,-0.34455055,-17.08024597,-14.07375336,22.13422804
7.265595104,-0.914563119,-17.13270569,-13.94652271,22.11043929
7.270361927,-1.374896288,-17.31522369,-13.61828899,22.07181702
7.275127969,-1.517157555,-17.24750328,-13.3858242,21.88511883
7.279893229,-1.333492756,-17.07596207,-13.17684364,21.61008773
7.284659271,-1.220070124,-16.94913101,-12.84544659,21.30181004
7.289426094,-0.913277268,-16.78794098,-12.38287544,20.88072417
7.294192187,-0.410482347,-16.61623001,-11.66802883,20.30789237
7.298957448,-0.017738819,-16.49840355,-10.77613163,19.70590387
7.303723489,0.441593289,-16.3074646,-9.705695152,18.98233191
7.308490312,0.924167693,-15.95486832,-8.687081337,18.19003274
7.313256354,1.150308967,-15.51944542,-7.694948196,17.36054793
7.318021666,1.218290329,-15.01769352,-6.481697559,16.40206552
7.322787708,1.302620649,-14.30358696,-5.20377636,15.27641021
7.327554531,1.40089345,-13.34136105,-4.007646561,14.00055884
7.332320573,1.410221219,-12.14783478,-2.795868397,12.54493897
7.337085833,1.309005022,-10.82346439,-1.480718613,11.00242715
7.341851927,1.254850268,-9.430294991,-0.182677984,9.515171257
7.34661875,1.247465849,-8.063806534,0.982773066,8.218697571
7.351384791,1.241276741,-6.805130005,1.936478138,7.183349491
7.356150052,1.184218884,-5.634921074,2.699843407,6.359549064
7.360916094,1.019641519,-4.538663864,3.332579851,5.722344534
7.365682969,0.846660793,-3.408717155,3.791823864,5.168569953
7.37044901,0.649699032,-2.214128494,4.032493591,4.646017476
7.375214271,0.377360493,-0.974163055,4.16734457,4.29629554
7.379980312,0.035753496,0.282265663,4.220879078,4.230457707
7.384747135,-0.357122749,1.550162315,4.193817616,4.485381372
7.389513177,-0.74525243,2.836499214,4.175387383,5.102449291
7.394278489,-1.091921806,4.162527084,4.168831825,5.991500959
7.399044531,-1.377727509,5.506348133,4.113105774,7.009682015
7.403811354,-1.59549582,6.822085381,4.028809071,8.081940261
7.408577396,-1.748115063,8.173995972,3.964957714,9.251540742
7.413342708,-1.838456035,9.506847382,3.965264797,10.46343121
7.41810875,-1.841300607,10.76551342,4.094731808,11.66419717
7.422875573,-1.66960907,11.96681404,4.384301186,12.85357264
7.427641614,-1.377924442,13.07016659,4.80262661,13.99261065
7.432406875,-1.071103692,14.03268147,5.30866766,15.04145487
7.437172969,-0.820235968,14.80925751,5.942316055,15.97804791
7.441939791,-0.652617395,15.42433167,6.637784958,16.80464537
7.446705833,-0.673063457,15.87369728,7.202475071,17.44428064
7.451471094,-0.868347883,16.16037178,7.558738232,17.8618635
7.456237135,-1.222317934,16.30647087,7.803736687,18.11886751
7.461003958,-1.804408789,16.24072647,7.936903,18.16621911
7.465770052,-2.56188488,15.89415359,7.915333748,17.93989635
7.470535312,-3.303967953,15.21689034,7.71317482,17.37708323
7.475301354,-3.438182354,14.32630634,7.283410072,16.43509092
7.480068177,-2.863863945,13.4806385,6.772780895,15.35577716
7.484834271,-2.323809147,12.66525936,6.306310654,14.33800675
7.489599531,-2.102697849,11.74605751,5.815099716,13.27428303
7.494365573,-1.96842289,10.75408745,5.270960808,12.13705538
7.499132396,-1.818481684,9.839877129,4.731958389,11.06894249
7.503898489,-1.605528593,9.048595428,4.23684597,10.11956842
7.50866375,-1.29667747,8.391893387,3.774080276,9.292412443
7.513429791,-0.923672557,7.883778095,3.344187975,8.613403582
7.518196614,-0.508514226,7.490495682,2.942676306,8.063836315
7.522962656,-0.022913635,7.242936134,2.533824921,7.673390229
7.527727969,0.43963784,7.143230438,2.094085217,7.456823413
7.53249401,0.783494413,7.176722527,1.647973776,7.405067676
7.537260833,0.961376369,7.338349342,1.184187055,7.495192764
7.542026875,0.921366096,7.649356842,0.741686463,7.740263199
7.546792187,0.633402407,8.114317894,0.414095283,8.149529336
7.551558229,0.07228297,8.627989769,0.315689802,8.634065805
7.556325052,-0.65576601,9.087812424,0.512075782,9.125819706
7.561091094,-1.368607044,9.422452927,0.963353038,9.569940098
7.565856354,-1.944603443,9.625138283,1.582060575,9.946239751
7.570622448,-2.396016121,9.70819664,2.185369253,10.23551728
7.575389271,-2.770548105,9.640878677,2.66977787,10.38027901
7.580155312,-3.053656101,9.404333115,2.999220848,10.3325516
7.584920573,-3.190415859,9.130282402,3.178635836,10.18059605
7.589686666,-3.102656603,8.978850365,3.313756466,10.06117358
7.594453489,-2.862739086,8.980806351,3.414751768,10.02550185
7.599219531,-2.643382072,9.095125198,3.444056034,10.07820883
7.603984791,-2.43752718,9.25210762,3.381121635,10.1476607
7.608750885,-2.257285118,9.363014221,3.262812614,10.16893886
7.613517708,-2.128853798,9.394248009,3.178458929,10.14329903
7.61828375,-2.092462778,9.350570679,3.200357199,10.10217099
7.62304901,-2.166725397,9.224837303,3.376524448,10.05948505
7.627815104,-2.234247923,9.074516296,3.711595058,10.05557794
7.632581927,-2.209124565,8.961854935,4.150064468,10.12018331
7.637347969,-2.151252747,8.891619682,4.543335915,10.21423958
7.642113229,-2.111127377,8.854222298,4.891192436,10.33333803
7.646879271,-2.036380291,8.868771553,5.301074505,10.53106568
7.651646146,-1.917822719,8.928089142,5.660136223,10.74364751
7.656412187,-1.724911451,9.017814636,5.910744667,10.91939572
7.661177448,-1.529886246,9.102067947,6.126976967,11.0782688
7.665943489,-1.41443646,9.149900436,6.270014763,11.18187791
7.670710364,-1.412246346,9.092153549,6.32740593,11.1668152
7.675476406,-1.494861007,8.917118073,6.265314579,11.0001714
7.680241666,-1.54273355,8.632156372,5.95224762,10.59827355
7.685007708,-1.641631365,8.163298607,5.302407265,9.871672628
7.689774583,-1.8508811,7.573097706,4.557123661,9.030224015
7.694540625,-2.169887781,6.945590496,3.921406507,8.266018952
7.699305885,-2.559211254,6.254716873,3.198287964,7.476636363
7.704071979,-2.935811281,5.481628895,2.32963419,6.640364348
7.708838802,-3.278821945,4.557282925,1.431897163,5.793947747
7.713604844,-3.526614189,3.39606142,0.735720992,4.950911652
7.718370104,-3.637130737,1.958027363,0.363178015,4.146623859
7.723136198,-3.598747492,0.329999924,0.431452513,3.639510232
7.727903021,-3.687381268,-1.329612732,1.103072286,4.072028867
7.732669062,-4.104617119,-3.011069298,1.840423107,5.413093129
7.737434323,-4.340225697,-4.685663223,2.071293354,6.714406534
7.742200416,-4.187366962,-6.478055,1.578995585,7.873529432
7.746967239,-3.935042143,-8.62315464,-0.155412674,9.479847347
7.751733281,-3.700006008,-11.26760387,-3.639346361,12.40539332
7.756498541,-3.078708649,-14.2593298,-8.636351585,16.95268421
7.761264635,-1.301209807,-17.18083954,-14.17243862,22.30991732
7.766031458,1.79959631,-19.54768372,-19.11345291,27.39844097
7.7707975,5.422050476,-20.96869659,-22.26124191,31.05877911
7.775562812,8.179776192,-21.46853447,-23.12421799,32.59656682
7.780328854,9.391812325,-21.15952301,-21.91303253,31.87652032
7.785095677,9.074598312,-20.3235054,-19.28668404,29.45113559
7.789861719,7.862522125,-19.24476242,-15.88337135,26.16221742
7.794627031,6.045041561,-18.21281242,-12.51752377,22.91151381
7.799393073,4.024796009,-17.47148705,-9.967736244,20.51359569
7.804159896,2.55293417,-16.93893433,-8.111598969,18.95370694
7.808925937,0.955894887,-16.65331268,-6.809043407,18.01692622
7.81369125,-0.769960761,-16.54283142,-6.124905109,17.65708282
7.818457291,-1.580808163,-16.72898483,-5.749088287,17.75978334
7.823224114,-2.071510315,-17.42618179,-5.131176472,18.28365223
7.827990156,-3.044150114,-18.37531662,-4.497580528,19.16108925
7.832755469,-4.080877304,-19.27225494,-4.236404419,20.14995019
7.83752151,-4.813021183,-19.92547226,-4.147199631,20.91384428
7.842288333,-5.407963753,-20.27277756,-4.053866386,21.36973127
7.847054375,-6.009515762,-20.31435394,-3.889839888,21.53875832
7.851819687,-6.341142178,-20.04814148,-3.791206837,21.3661253
7.856585729,-6.339443684,-19.57266998,-3.862287521,20.93311304
7.861352552,-6.239512444,-19.06065369,-4.072963238,20.46531368
7.866118646,-6.013254166,-18.63688278,-4.581632614,20.11178716
7.870883906,-5.355483055,-18.32796478,-5.529556274,19.87892061
7.875649948,-4.162623405,-18.11986923,-6.818396091,19.80271749
7.880416823,-2.551620483,-18.0200634,-8.134646416,19.93504262
7.885182864,-0.775642991,-18.01916122,-9.2109375,20.25174469
7.889948125,0.807261467,-18.00239182,-9.800109863,20.51292118
7.894714219,1.949994445,-17.82157135,-9.797019005,20.43018515
7.899481041,2.676072121,-17.30221176,-9.252884865,19.80262034
7.904247083,3.164685726,-16.30344391,-8.315023422,18.57302166
7.909012396,3.356717587,-14.83518505,-7.174204826,16.81723768
7.913778437,3.302930593,-13.0196867,-5.915770054,14.67712259
7.91854526,3.273352861,-11.04364109,-4.65571022,12.42386756
7.923311302,3.334094048,-9.143797874,-3.490433216,10.33964926
7.928076614,3.350620985,-7.430064201,-2.455928087,8.512584672
7.932842656,3.115006924,-5.942944527,-1.480568171,6.871240055
7.937609479,2.55203414,-4.694206238,-0.471512556,5.363839534
7.942375573,1.738079667,-3.597480774,0.527256966,4.029986198
7.947140833,0.702571273,-2.575935364,1.452279806,3.039435149
7.951906875,-0.460609347,-1.567135811,2.223610401,2.759079346
7.956673698,-1.497621179,-0.527786255,2.77584219,3.197925482
7.961439791,-2.330068111,0.537561417,3.153860807,3.957906981
7.966205052,-2.987366438,1.624207497,3.398368597,4.80742315
7.970971094,-3.479977131,2.717822552,3.459531307,5.609381171
7.975737969,-3.880933762,3.832644463,3.302467108,6.376291982
7.98050401,-4.18467617,4.944625378,3.131467581,7.194923487
7.985269323,-4.281291485,6.084791183,3.023604393,8.030960344
7.990035364,-4.088020802,7.296039104,2.900458813,8.851935495
7.994802187,-3.625768661,8.482513428,2.834295034,9.650516089
7.999568229,-2.978203058,9.603435516,2.820805073,10.44282569
8.004333541,-2.260290623,10.58456802,2.941869259,11.21590784
8.009099583,-1.567571521,11.38285637,3.217097759,11.93215897
8.013866406,-0.968596339,12.00792503,3.489087343,12.5420163
8.018632448,-0.595779121,12.44782829,3.737145901,13.01036669
8.02339776,-0.380260676,12.72178268,4.002562523,13.34199609
8.028163802,-0.210499361,12.91103745,4.312768459,13.61393292
8.032930677,-0.08274091,13.08464146,4.68866396,13.89957761
8.037696719,0.025626794,13.26611328,5.16800499,14.23722915
8.042461979,0.121048085,13.45516777,5.685094357,14.60741217
8.047228073,0.20152384,13.63034821,6.13686657,14.94951957
8.051994896,0.139630899,13.72283363,6.442276955,15.16042849
8.056760937,-0.03599979,13.73346519,6.600609779,15.23736892
8.061526198,-0.265936077,13.67020893,6.687896729,15.22081788
8.066292291,-0.546664298,13.52876091,6.704891682,15.10899686
8.071059114,-0.78682673,13.43616009,6.696154594,15.03289661
8.075825156,-0.957912624,13.38044453,6.704406261,14.99676484
8.080590469,-1.053064823,13.28975487,6.653363705,14.89945565
8.08535651,-1.108762383,13.15196514,6.465036869,14.69694672
8.090123333,-1.104254007,12.94291496,6.102626324,14.35201981
8.094889427,-1.07118988,12.5021553,5.529623032,13.71233262
8.099654687,-1.061879754,11.68392563,4.826224804,12.68598252
8.104420781,-1.130565643,10.76600742,4.222619057,11.6196216
8.109187604,-1.150025487,10.10477734,3.814613104,10.8618763
8.113953646,-0.993381977,9.67361927,3.49207449,10.33248769
8.118718958,-0.799443603,9.343144417,3.214257717,9.912865899
8.123485,-0.632896841,9.103621483,2.986235142,9.601774984
8.128251823,-0.500776827,8.95729351,2.77956152,9.392009727
8.133017916,-0.42230922,8.872898102,2.585116863,9.251459074
8.137783177,-0.387984365,8.857469559,2.400920391,9.185298992
8.142549219,-0.3739959,8.872594833,2.205956936,9.150358354
8.147316094,-0.375832856,8.887086868,2.022195816,9.121997548
8.152082135,-0.376866967,8.922411919,1.871527195,9.124367222
8.156847396,-0.346285582,8.976120949,1.751706719,9.152001826
8.161613489,-0.289125979,9.041026115,1.67458117,9.199346126
8.166380312,-0.210445046,9.136294365,1.65644753,9.287625114
8.171146354,-0.127257139,9.278691292,1.684755445,9.431262237
8.175911666,-0.056535751,9.451503754,1.75646019,9.61349426
8.180677708,-0.050785154,9.587835312,1.851772308,9.765153649
8.185444531,-0.171718597,9.663949966,1.938870311,9.858023854
8.190210625,-0.361502469,9.715874672,2.029252291,9.932108011
8.194975885,-0.502753794,9.791544914,2.134404659,10.03408174
8.199741979,-0.578936458,9.886219978,2.253856421,10.1563961
8.204508802,-0.621226847,9.968848228,2.39682579,10.27173947
8.209274844,-0.644103289,10.02275181,2.572593689,10.36767385
8.214040156,-0.659591317,10.0719223,2.847813129,10.48755068
8.218806198,-0.715443254,10.14516163,3.28401947,10.68742005
8.223573021,-0.806749165,10.230546,3.749215126,10.92572788
8.228339114,-0.918816805,10.25161076,4.080516815,11.07205333
8.233104375,-1.058441162,10.16542625,4.261313915,11.07316508
8.237870416,-1.155985236,9.957744598,4.265777111,10.89448639
8.242637291,-1.180266857,9.638232231,4.101613045,10.54095726
8.247403333,-1.140946627,9.261931419,3.829316616,10.08706095
8.252168646,-1.078794122,8.847933769,3.461534023,9.562005362
8.256934687,-1.017991424,8.47504425,3.068457127,9.070728236
8.26170151,-0.987261653,8.157413483,2.669997215,8.639847535
8.266467604,-1.003377199,7.887660503,2.276407003,8.270670037
8.271232864,-0.994694471,7.667977333,1.909855604,7.964599293
8.275998906,-0.968510509,7.476659298,1.549341679,7.696681525
8.280765781,-0.934528232,7.277655125,1.205072641,7.435711614
8.285531823,-0.878575385,7.042150497,0.872750819,7.150207852
8.290297135,-0.762637377,6.791516304,0.474200726,6.850633241
8.295063177,-0.570232272,6.482551098,-0.006620288,6.507586143
8.29983,-0.311290979,6.07440567,-0.549542308,6.107151797
8.304596094,0.058979452,5.480893135,-1.132410526,5.596965404
8.309361354,0.610803008,4.61363554,-1.597488165,4.920435108
8.314127448,1.454139113,3.291151524,-1.737335682,3.995564314
8.318894271,2.326263189,1.282084942,-1.660840988,3.132672184
8.323660312,2.429294348,-1.352929115,-1.734580755,3.277294405
8.328425625,1.599369764,-4.479269028,-1.999018908,5.159254913
8.333191666,0.574211419,-7.888242722,-2.308503151,8.239130948
8.337958489,-0.09857589,-11.39036179,-2.515823364,11.66530866
8.342724583,-0.367036998,-14.89676285,-2.748888493,15.15271089
8.347489844,-0.433720887,-18.4955368,-3.527631521,18.83393691
8.352255885,-0.419152409,-22.17636299,-4.745634079,22.68232367
8.35702276,-0.375177622,-25.81738472,-6.102690697,26.53150855
8.361788802,-0.379473329,-29.00638199,-7.218927383,29.89359645
8.366554114,-0.082391202,-30.5690155,-7.524150848,31.48149207
8.371320156,1.307719111,-29.49912643,-6.344396114,30.20198589
8.376086979,4.402705669,-25.59069061,-4.150608063,26.29628891
8.380853073,7.280471325,-20.6043129,-1.800485134,21.92680367
8.385618333,8.05224514,-17.01830673,-0.548314333,18.83512847
8.390384427,7.681414604,-15.26304054,-1.488541603,17.15168485
8.39515125,6.836428642,-14.45803547,-3.809240103,16.4402511
8.399917291,5.782937527,-14.02266216,-6.518256187,16.50954525
8.404682604,4.538899899,-13.93174648,-9.327559471,17.36947144
8.409448646,2.649527073,-14.15261745,-11.81654453,18.62652139
8.414215521,0.555645108,-14.46095562,-13.25046921,19.6214911
8.418981562,-1.211219668,-14.81186962,-13.87870407,20.33413292
8.423746823,-2.618666172,-15.29146194,-14.01475525,20.90692674
8.428512916,-3.575675964,-15.81290436,-13.66857815,21.20526895
8.433279739,-3.906020164,-16.30317116,-12.89586544,21.15073826
8.438045833,-3.804939985,-16.8399353,-11.70215988,20.85669042
8.442811094,-3.406113863,-17.27631187,-10.26137829,20.38058998
8.447577135,-2.647034883,-17.48510742,-8.934528351,19.81316663
8.45234401,-1.663519144,-17.45917892,-8.006772995,19.27948751
8.457110052,-0.648212612,-17.17012787,-7.518092155,18.75513744
8.461875364,0.271689355,-16.74039268,-7.414660931,18.31097373
8.466641406,1.007777333,-16.26372147,-7.431882858,17.90969385
8.471408229,1.474338531,-15.8240757,-7.303527832,17.49047068
8.476174323,1.881913185,-15.34016609,-6.94357872,16.94330483
8.480939583,2.409594774,-14.74257755,-6.266787529,16.19945573
8.485705677,2.82762289,-14.10771561,-5.269747734,15.32296747
8.4904725,3.068941832,-13.42580414,-4.085334778,14.36525604
8.495238541,3.279384613,-12.58901691,-2.820019007,13.31128159
8.500003854,3.460966825,-11.55419254,-1.532399416,12.15836768
8.504769896,3.455803871,-10.43125725,-0.254725695,10.99175115
8.509536771,3.225888014,-9.277466774,1.036015511,9.876794589
8.514302812,2.860300541,-8.121226311,2.324261427,8.918398239
8.519068125,2.309858799,-7.019618988,3.563419819,8.20417328
8.523834166,1.611687541,-5.919676781,4.604204178,7.670645737
8.528600989,0.927576184,-4.770928383,5.383729935,7.253047857
8.533367083,0.256570756,-3.601924896,5.932609558,6.945181616
8.538132344,-0.299878329,-2.360050201,6.274758339,6.710615186
8.542898437,-0.695687532,-1.023981094,6.365116596,6.484383371
8.54766526,-1.085728407,0.317473412,6.19730854,6.299700682
8.552431302,-1.471486926,1.611309052,5.830162048,6.225140974
8.557196614,-1.870765686,2.864480972,5.25521183,6.270746915
8.561962656,-2.282344341,4.043128014,4.574676037,6.517947581
8.566729531,-2.662140369,5.170979977,3.902104378,7.003744987
8.571495573,-2.957020044,6.278824329,3.241258144,7.65985358
8.576260833,-2.997752905,7.385447502,2.636448145,8.39536873
8.581026927,-2.828331232,8.459458351,2.143703938,9.17373205
8.58579375,-2.607658863,9.462414742,1.77320528,9.974038021
8.590559844,-2.372701168,10.33923531,1.549250603,10.72052587
8.595325104,-2.041202784,11.06837559,1.462654829,11.34966106
8.600091198,-1.550374269,11.6833849,1.477571249,11.87806212
8.604858021,-1.08574307,12.11738586,1.586871147,12.26898685
8.609624062,-0.834555924,12.34181976,1.707236886,12.48725977
8.614389375,-0.687351584,12.42858315,1.786674023,12.57514752
8.619155416,-0.536964655,12.46146393,1.868964195,12.61227344
8.623922291,-0.427026361,12.49782372,1.947863936,12.65591257
8.628688333,-0.334121317,12.5543108,2.038800955,12.72317044
8.633453646,-0.277379632,12.66679382,2.230820417,12.86472561
8.638219687,-0.285225928,12.80650806,2.450576067,13.0419832
8.64298651,-0.328552008,12.95431137,2.612766266,13.21925403
8.647752604,-0.356741548,13.1174612,2.746396303,13.40663066
8.652517864,-0.395316273,13.1861763,2.754971504,13.47669798
8.657283958,-0.50772953,13.1178751,2.588871956,13.38053416
8.662050781,-0.638308942,13.0182066,2.373234749,13.24814645
8.666816823,-0.74593848,12.93047619,2.14708519,13.12873236
8.671582135,-0.851874709,12.85719681,1.91652441,13.02713576
8.676348177,-0.941848159,12.78167725,1.695255041,12.92796352
8.681115052,-0.985142112,12.65133095,1.482903719,12.77598071
8.685881094,-1.008474469,12.49486256,1.291768193,12.6018759
8.690646406,-1.024394274,12.31938553,1.096185446,12.41040958
8.695412448,-1.045238853,12.12482834,0.899430871,12.2029899
8.700179271,-1.085695982,11.92071152,0.747615397,11.99337432
8.704945364,-1.122172475,11.71895313,0.677117825,11.79201519
8.709710677,-1.157273531,11.51712418,0.681140542,11.59514484
8.714476719,-1.19819057,11.31282806,0.704843938,11.39791843
8.719243541,-1.230558038,11.12758827,0.750803649,11.22057039
8.724009635,-1.280573487,10.95659828,0.807225823,11.06067484
8.728774896,-1.328799486,10.81420708,0.852589488,10.92884677
8.733540989,-1.39393568,10.68127728,0.941858769,10.81294774
8.738307812,-1.494431376,10.5195961,1.065105081,10.67846787
8.743073906,-1.610636711,10.35554886,1.195627689,10.54803623
8.747839166,-1.670433044,10.23464108,1.327905297,10.45473849
8.752605208,-1.60709393,10.20708847,1.45639801,10.43496531
8.757372083,-1.397209167,10.25607681,1.589924812,10.47220922
8.762138125,-1.086930752,10.3074131,1.696816444,10.50254109
8.766903437,-0.781972528,10.35394478,1.779057622,10.53473775
8.771669479,-0.56374979,10.39570141,1.862641811,10.57628744
8.776436354,-0.451432705,10.4087944,1.954501152,10.60032392
8.781202396,-0.416156888,10.41240501,2.068799019,10.62409027
8.785967708,-0.402745158,10.42568207,2.188706875,10.66055759
8.79073375,-0.401636183,10.44860744,2.292771339,10.70474239
8.795500573,-0.403226942,10.48116779,2.359481096,10.75102885
8.800266666,-0.364477903,10.53290462,2.377068758,10.80395205
8.805031927,-0.302311838,10.61333466,2.357750177,10.87627008
8.809798021,-0.231095448,10.68654728,2.299268246,10.93354162
8.814564844,-0.153422281,10.73338985,2.218688726,10.96137655
8.819330937,-0.069396764,10.7514782,2.137830257,10.96218124
8.824096198,0.001886785,10.73365498,2.066497803,10.93077151
8.828862291,0.050889552,10.6488533,1.98111248,10.83168837
8.833629114,0.034764886,10.40387821,1.872548819,10.57110824
8.838395208,-0.098575473,9.977391243,1.712601662,10.12378672
8.843160469,-0.279457301,9.52980423,1.511328936,9.65294671
8.847926562,-0.488270253,9.144808769,1.293226719,9.248695617
8.852693385,-0.7103163,8.8151474,1.113603115,8.913556239
8.857459427,-0.911682487,8.567062378,0.994055986,8.672593041
8.862224739,-1.072953939,8.412387848,0.872690558,8.52532042
8.866990781,-1.153409004,8.284052849,0.785444558,8.400762292
8.871757656,-1.203199148,8.160477638,0.720602095,8.280117804
8.876523698,-1.274761915,8.032049179,0.683357894,8.161238262
8.88128901,-1.363260508,7.891548634,0.74337244,8.042861533
8.886055052,-1.411368489,7.767634392,0.809828818,7.936241413
8.890821927,-1.419258118,7.650735378,0.63099432,7.806804677
8.895587969,-1.489294648,7.243991852,-0.308092296,7.401914439
8.900353281,-1.502530932,6.406606674,-1.760561705,6.811885627
8.905119323,-0.50595957,4.067573071,-2.95625186,5.053767983
8.909886146,5.552625179,-2.662652969,-2.807064295,6.767641921
8.914652239,11.26609612,-14.55186176,-4.179508209,18.87193396
8.919417552,7.646654606,-28.67591858,-5.601315975,30.20189354
8.924183594,0.044403255,-39.57470703,-4.496275902,39.82933473
8.928950416,-4.133527756,-45.12553406,-3.874999046,45.47983612
8.93371651,-6.016422272,-49.12089539,-3.689604282,49.62532499
8.938481771,-8.570569992,-53.69675446,-4.871211529,54.59418294
8.943247864,-9.795511246,-56.65015411,-6.565103531,57.86443282
8.948014687,-6.411780357,-54.83800888,-7.960408688,55.78249055
8.952780781,0.573943734,-47.01067734,-9.345338821,47.93400205
8.957546041,6.569583416,-36.24987411,-9.859375,38.13685979
8.962312135,9.393997192,-26.96175766,-9.784006119,30.18129114
8.967078958,9.897087097,-20.33206558,-9.260353088,24.43561669
8.971845052,8.825117111,-15.99013519,-8.462278366,20.12901564
8.976610312,6.668557167,-13.57280731,-7.490849495,16.87612453
8.981376354,4.0346241,-12.46639919,-6.567504883,14.65678754
8.986143229,1.6308043,-12.18762589,-5.784288406,13.58880936
8.990909271,-0.002565563,-12.70177364,-4.926204681,13.62360278
8.995674583,-1.043787241,-13.91060925,-4.591880798,14.68604476
9.000440625,-1.699754,-15.29136753,-5.728638172,16.41744133
9.0052075,-1.965330362,-16.41775131,-8.31553936,18.50819485
9.009973541,-1.766337156,-17.17191315,-11.16242695,20.5570991
9.014738854,-1.306104898,-17.42109871,-13.05531311,21.80921343
9.019504896,-0.983966112,-17.13001823,-13.59598827,21.89193027
9.024271771,-0.786308229,-16.51384735,-12.77262115,20.89175163
9.029037812,-0.40264973,-16.02877045,-10.65848446,19.25323089
9.033803125,0.264573693,-15.81935406,-7.543045998,17.52767825
9.038569166,1.00155127,-15.55432892,-4.266733646,16.15998976
9.043335989,1.562488794,-15.04655361,-1.621911287,15.21416258
9.048102083,1.782557726,-14.31742096,0.139650583,14.42863671
9.052867396,1.729868174,-13.31446362,1.148014903,13.47535986
9.057633437,1.525331974,-12.11701775,1.71327877,12.33223746
9.06240026,1.258288741,-10.79491138,2.021287918,11.05436598
9.067166354,1.122457743,-9.394132614,2.210163355,9.715681191
9.071931614,1.176972628,-7.9702034,2.393899679,8.404770221
9.076697708,1.284849167,-6.521119118,2.607098103,7.139523265
9.081464531,1.309493303,-5.123706818,2.879329205,6.021435122
9.086230625,1.241502881,-3.742185593,3.201450586,5.078835326
9.090995885,1.100269437,-2.326418877,3.49240303,4.338167418
9.095761979,0.857738614,-0.905219078,3.714401245,3.918151824
9.100528802,0.457622051,0.499901772,3.910866737,3.969155875
9.105294896,-0.053648353,1.812468529,4.13230896,4.51263755
9.110060156,-0.696285605,3.037469864,4.345448971,5.347332379
9.11482625,-1.394846678,4.201403618,4.41190958,6.249986861
9.119593073,-1.971341133,5.304311752,4.28254509,7.096626063
9.124359166,-2.449100018,6.322379589,4.106387138,7.926726304
9.129124427,-2.811002254,7.296344757,3.905635834,8.740272979
9.133890521,-3.045155525,8.25969696,3.661653519,9.53432077
9.138657344,-3.149511576,9.145400047,3.418119192,10.25871844
9.143423437,-3.134151936,9.936756134,3.189596653,10.89658468
9.148188698,-3.128526688,10.65299416,2.968992472,11.49299265
9.152954791,-3.10903883,11.30612373,2.751577616,12.0443238
9.157721614,-3.035505295,11.83643532,2.620835304,12.49737057
9.162487708,-2.944418192,12.19393158,2.654844284,12.82223709
9.167252969,-2.757555485,12.38126087,2.819228411,12.99414414
9.172019062,-2.52827692,12.42730808,2.950871229,13.02066862
9.176785885,-2.31697917,12.42073441,3.018242836,12.99048981
9.181551979,-2.119355917,12.39984512,3.071369648,12.94917527
9.186317239,-1.983593822,12.37899113,3.062256098,12.90548249
9.191083333,-1.77627492,12.3198328,2.955191135,12.79322428
9.195850156,-1.567115784,12.29651546,2.87462616,12.72492122
9.200616198,-1.45420289,12.30897045,2.77282095,12.70094467
9.20538151,-1.346628189,12.31655216,2.675803185,12.67559811
9.210147604,-1.246951461,12.33368587,2.712170124,12.68978179
9.214914427,-1.164854765,12.35085487,2.795264721,12.71668226
9.219680469,-1.105180979,12.38718224,2.817425251,12.751533
9.224445781,-1.094217062,12.39239502,2.764568806,12.74408121
9.229211875,-1.100782394,12.39280033,2.665712357,12.72396339
9.233978698,-1.074820638,12.44573402,2.552254915,12.75011921
9.238744739,-1.047581673,12.51524258,2.4433887,12.79448602
9.243510052,-1.026477337,12.55345917,2.355902433,12.81379214
9.248276146,-0.990098238,12.54843426,2.258851528,12.78850683
9.253042969,-0.964758277,12.51456261,2.169035435,12.73772941
9.25780901,-0.952933848,12.4661932,2.09142971,12.67628234
9.262574323,-0.933223009,12.41049194,2.011776686,12.60707979
9.267340416,-0.898550272,12.39527798,1.899063826,12.57206237
9.272107239,-0.882482648,12.38462257,1.805988789,12.54668273
9.276873281,-0.911142707,12.30202484,1.785115242,12.46421408
9.281638594,-0.962785006,12.17386532,1.755249977,12.33737631
9.286404687,-1.037177205,12.04321098,1.699997544,12.20674645
9.29117151,-1.1387887,11.91245651,1.626763821,12.0768299
9.295937552,-1.257753968,11.74811172,1.578873396,11.92027329
9.300702864,-1.388844728,11.59088707,1.525379658,11.77303427
9.305468958,-1.533923388,11.45035172,1.45456028,11.64384906
9.310235781,-1.711348295,11.29068089,1.395215988,11.50455629
9.315001823,-1.918047309,11.08327007,1.356844783,11.32955466
9.319767135,-2.095950127,10.81870174,1.339240909,11.10094053
9.324533229,-2.151931763,10.50187588,1.330042481,10.80227848
9.329300052,-2.034015656,10.18784714,1.362446904,10.47786765
9.334066094,-1.797832131,9.972243309,1.417077422,10.231615
9.338831406,-1.553842783,9.895591736,1.474560857,10.12479594
9.3435975,-1.357250333,9.888407707,1.565631866,10.10316478
9.348364323,-1.193713903,9.871720314,1.658954859,10.0810687
9.353130364,-1.051356316,9.852707863,1.744932652,10.06111288
9.357895677,-0.93512547,9.85767746,1.852128744,10.07366097
9.362661771,-0.826044381,9.865065575,1.973319292,10.09434778
9.367428594,-0.738622427,9.85811615,2.101338625,10.10661373
9.372194687,-0.689696431,9.832061768,2.209830761,10.1009144
9.376959948,-0.653042316,9.786914825,2.31794548,10.07884107
9.381726041,-0.62626183,9.715532303,2.437610626,10.03622027
9.386492864,-0.626063764,9.615571976,2.556759834,9.969363124
9.391258906,-0.64051199,9.496659279,2.694310904,9.892224437
9.396024219,-0.657622814,9.342097282,2.833403587,9.784448134
9.400790312,-0.689273179,9.128048897,2.95953846,9.620563501
9.405557135,-0.735239029,8.876142502,3.053436756,9.415410674
9.410323229,-0.804786146,8.629480362,3.105625629,9.206547812
9.415088489,-0.885562062,8.392822266,3.080560446,8.984071372
9.419854583,-0.967474997,8.180494308,2.976231098,8.758678356
9.424621406,-1.057242155,7.990044594,2.84095335,8.545735166
9.4293875,-1.159188747,7.804688931,2.732456207,8.350042202
9.43415276,-1.275278568,7.624365807,2.641673326,8.1691938
9.438918854,-1.393177032,7.446653366,2.573619843,8.001069159
9.443685677,-1.484026432,7.264373779,2.609506607,7.860215365
9.448451771,-1.547609329,7.108607292,2.589021683,7.722073915
9.453217031,-1.564885139,7.024763107,2.356520653,7.572935481
9.457983125,-1.519293308,6.981706619,2.057554007,7.435456137
9.462749948,-1.435111284,6.907711029,1.863636374,7.29720197
9.467516041,-1.336775422,6.585148811,1.557207108,6.897539226
