Time (s),Linear Acceleration x (m/s^2),Linear Acceleration y (m/s^2),Linear Acceleration z (m/s^2),Absolute acceleration (m/s^2)
0.097614181,1.105422497,0.028196812,1.223169327,1.648907868
0.102381212,1.104738474,0.010360718,1.260400772,1.676056248
0.107147462,1.075152159,0.030221939,1.241951942,1.642957747
0.111914493,0.981763601,0.033607721,1.251342773,1.590863911
0.116682254,0.811503172,0.04164505,1.284176826,1.519665039
0.121449285,0.59916091,0.042930603,1.277498245,1.411679354
0.126215535,0.408991337,0.021993876,1.17596817,1.245254505
0.130982566,0.254603386,-0.01275897,0.937476158,0.971517999
0.135750326,0.112661839,-0.042007208,0.633071899,0.64438911
0.140517358,0.009127855,-0.0653615,0.300653458,0.307811541
0.145283608,-0.02603817,-0.098365545,-0.092371941,0.137427589
0.150050639,-0.037111521,-0.121382237,-0.51317215,0.528636517
0.154818451,-0.045843124,-0.120129347,-0.914013863,0.923013539
0.159585483,-0.031578779,-0.096956253,-1.292494774,1.296510885
0.164351733,0.007350445,-0.067875147,-1.646142483,1.647557628
0.169118712,0.049291134,-0.018676519,-1.907423973,1.908152154
0.173886524,0.084787846,0.031671524,-2.089152813,2.091112513
0.178653556,0.086554766,0.067306757,-2.180477142,2.183232121
0.183419806,0.099988937,0.118965864,-2.207602501,2.213065626
0.188186837,0.122791767,0.155966044,-2.18409729,2.193099222
0.192954597,0.115442276,0.169271946,-2.09500885,2.105004036
0.197721629,0.078924179,0.166186333,-1.967426777,1.97600988
0.202487879,0.021236897,0.153833151,-1.790434361,1.797156321
0.20725491,-0.008085251,0.113378048,-1.602128983,1.606156042
0.212022722,-0.056936741,0.014846563,-1.460407734,1.461592612
0.216789754,-0.178957462,-0.147687435,-1.365872383,1.385440262
0.221556004,-0.243844032,-0.249402523,-1.256416798,1.303934316
0.226322983,-0.264007568,-0.221759319,-1.123141289,1.174871715
0.231090795,-0.350750923,-0.191483021,-1.073858261,1.145802567
0.235857826,-0.507934332,-0.27780509,-1.181148529,1.315402905
0.240624076,-0.621366262,-0.410159349,-1.214787483,1.424793091
0.245391108,-0.598290682,-0.468198776,-1.14371109,1.37303929
0.25015892,-0.542445421,-0.467756987,-1.129252911,1.337256808
0.254925899,-0.522855043,-0.459475517,-1.151185989,1.345259949
0.259692149,-0.536807776,-0.462522984,-1.159267902,1.358672944
0.264459181,-0.5415802,-0.48396349,-1.120759964,1.335527113
0.269226993,-0.497644663,-0.507285118,-1.083295345,1.295576013
0.273994024,-0.450487614,-0.497461081,-1.049071312,1.245374335
0.278760274,-0.43757081,-0.476460695,-0.994456291,1.18635
0.283527306,-0.467708349,-0.451524258,-0.976130962,1.172798751
0.288295066,-0.505175352,-0.439103127,-1.052081585,1.246952025
0.293062097,-0.49637568,-0.450518847,-1.208806992,1.38223384
0.297828347,-0.447122335,-0.464067459,-1.376756668,1.520110494
0.302595379,-0.412583351,-0.484214544,-1.53230381,1.659109313
0.307363191,-0.402163744,-0.501354694,-1.66866827,1.788168337
0.312130222,-0.387248755,-0.50121069,-1.762795925,1.87313193
0.316896472,-0.344406366,-0.486318588,-1.810761452,1.906299701
0.321663504,-0.288270474,-0.466243982,-1.80629158,1.887636774
0.326431264,-0.242657542,-0.424531221,-1.729015827,1.796831982
0.331198295,-0.209561825,-0.373313427,-1.587133408,1.643858731
0.335964545,-0.160083771,-0.350484371,-1.386359692,1.438909067
0.340731576,-0.131596804,-0.343918324,-1.141729355,1.199643052
0.345499389,-0.118378878,-0.332475901,-0.87503624,0.943526472
0.35026642,-0.110341549,-0.332878828,-0.619538784,0.711907211
0.35503267,-0.149636507,-0.342652798,-0.400930405,0.548221865
0.359799701,-0.212030888,-0.350023508,-0.218502998,0.463914986
0.364567462,-0.283153057,-0.355120659,-0.052721977,0.457237294
0.369334493,-0.35349679,-0.379371643,0.113306046,0.530774042
0.374100743,-0.418722272,-0.434388638,0.263228416,0.658263647
0.378867774,-0.44608748,-0.512747526,0.399760246,0.788487362
0.383635587,-0.445935488,-0.592989683,0.511445999,0.901150506
0.388402618,-0.44715786,-0.67752552,0.629420281,1.027210237
0.393168868,-0.412117481,-0.742819786,0.741906166,1.127850527
0.397935899,-0.357939124,-0.782100678,0.837240219,1.20032207
0.40270366,-0.296883345,-0.795848846,0.925213814,1.255999884
0.407470691,-0.217213988,-0.777359009,1.027238846,1.306402921
0.412236941,-0.147300243,-0.743792057,1.147910118,1.375725854
0.417003972,-0.081960678,-0.711910486,1.272773743,1.460646122
0.421771785,-0.039658785,-0.681807041,1.39938736,1.557150809
0.426538816,-0.045795679,-0.665285349,1.520583153,1.660383981
0.431305066,-0.07824707,-0.664535046,1.603260994,1.737289626
0.436072097,-0.127041817,-0.657925129,1.645418167,1.776627717
0.440839858,-0.203684211,-0.668922424,1.659235001,1.800556929
0.445606889,-0.298062921,-0.694850683,1.661474228,1.825419291
0.450373139,-0.367134213,-0.70461154,1.65213871,1.83325592
0.45514017,-0.406178594,-0.707638264,1.633576393,1.826007885
0.459907983,-0.420111656,-0.70143199,1.605771065,1.801943771
0.464675014,-0.427996635,-0.692960024,1.55449295,1.754942463
0.469441264,-0.439389586,-0.670298576,1.482319832,1.685121798
0.474208295,-0.413949251,-0.633486271,1.408361435,1.598793536
0.478976108,-0.380594492,-0.601547718,1.342098236,1.519190409
0.483743139,-0.372473836,-0.56739521,1.283433914,1.451852849
0.488509389,-0.360898733,-0.533468485,1.23466301,1.392562123
0.49327642,-0.357950926,-0.48788023,1.172017097,1.319007225
0.498044233,-0.373098254,-0.447519302,1.10754776,1.251454304
0.502811212,-0.382512569,-0.419481516,1.060245514,1.202664192
0.507577462,-0.386405587,-0.394234419,1.006284714,1.147753885
0.512344493,-0.387247086,-0.378859997,0.936250687,1.081693372
0.517112306,-0.397170305,-0.363782883,0.859827995,1.014586822
0.521879337,-0.430379868,-0.346590757,0.786554337,0.961259438
0.526645587,-0.460715175,-0.334357023,0.704545975,0.905780394
0.531412618,-0.466916561,-0.331772804,0.632849693,0.853570737
0.536180431,-0.465770364,-0.329194784,0.568956375,0.805619386
0.540947462,-0.466740966,-0.326560974,0.515113831,0.768004855
0.545713712,-0.481666446,-0.323845625,0.471214294,0.747610504
0.550480743,-0.503255844,-0.311525106,0.420532227,0.726059013
0.555248504,-0.519785523,-0.289696932,0.367915154,0.699616225
0.560015535,-0.538645387,-0.270270824,0.339511871,0.691703319
0.564781785,-0.548109531,-0.24860692,0.32568264,0.684323492
0.569548816,-0.531688452,-0.222384214,0.335803032,0.66701651
0.574316629,-0.510904908,-0.210659027,0.364912033,0.662240019
0.57908366,-0.511714697,-0.196825743,0.412843704,0.686317877
0.58384991,-0.528912544,-0.195229769,0.496017456,0.750930395
0.588616941,-0.557226419,-0.20817709,0.578463554,0.829734335
0.593384754,-0.565631032,-0.211859465,0.650701523,0.887826204
0.598151785,-0.547270536,-0.19686842,0.693861961,0.905376516
0.602918035,-0.507216454,-0.170561075,0.689243317,0.87259152
0.607685066,-0.421833634,-0.149702787,0.672851563,0.808135982
0.612452879,-0.305498838,-0.105655432,0.680324554,0.753215846
0.61721991,-0.188898206,-0.060043812,0.709021568,0.736206069
0.62198616,-0.090479732,-0.046094894,0.730161667,0.737188837
0.626753191,-0.009809375,-0.051481485,0.700955391,0.70291182
0.631521004,0.045909405,-0.049612761,0.600399971,0.604193036
0.636287983,0.069450617,-0.061677694,0.445682526,0.455258652
0.641054233,0.077389121,-0.077895164,0.25861454,0.280959451
0.645821264,0.07185185,-0.081285715,0.063182831,0.125547305
0.650589076,0.059900403,-0.083660364,-0.102560997,0.145278605
0.655356108,0.022339225,-0.065925837,-0.248333931,0.257905018
0.660122358,-0.009943962,-0.042521238,-0.357624054,0.36028031
0.664889389,-0.022570491,-0.018330574,-0.402206421,0.40325605
0.669657201,-0.020211458,0.011137962,-0.401556969,0.402219538
0.674424233,-0.003032565,0.024325132,-0.379721642,0.380512068
0.679190483,0.028523445,0.032922506,-0.369984627,0.372540068
0.683957514,0.040880203,0.036668539,-0.369767189,0.373822882
0.688725326,0.033990502,0.025814772,-0.355138779,0.357694435
0.693492358,0.036654472,-0.014134645,-0.32614708,0.328504575
0.698258608,0.082674026,-0.068949223,-0.261551857,0.28283982
0.703025639,0.163144708,-0.114838839,-0.197395325,0.280658278
0.707793451,0.211145163,-0.146967053,-0.245404244,0.355534579
0.712560483,0.237339258,-0.167426109,-0.585310936,0.653414354
0.717326733,0.233263135,-0.178453565,-0.751717567,0.807054314
0.722093764,0.149231315,-0.172773242,-0.612736702,0.653885957
0.726861524,0.018960953,-0.167247295,-0.562720299,0.587354501
0.731628556,-0.095450282,-0.15715313,-0.54634285,0.57645327
0.736394858,-0.122622013,-0.118840694,-0.572885513,0.59779351
0.741161837,-0.087048888,-0.064628363,-0.641981125,0.651071501
0.745929649,-0.046486616,-0.008972883,-0.741396904,0.742907052
0.750696681,-0.037138462,0.038576603,-0.858970642,0.860638126
0.755462931,-0.083160281,0.056756973,-1.034966469,1.03985219
0.760229962,-0.139521122,0.031702995,-1.252347946,1.260494586
0.764997774,-0.208946943,-0.014680147,-1.45854044,1.473504172
0.769764806,-0.313336492,-0.051163793,-1.646469593,1.676800409
0.774531056,-0.403296232,-0.077566028,-1.868571758,1.913171387
0.779298087,-0.465381444,-0.084177732,-2.134143829,2.185917579
0.784065899,-0.50027436,-0.03265202,-2.364472389,2.417037499
0.788832931,-0.51072675,0.050716877,-2.533672333,2.585132396
0.793599181,-0.504262865,0.142251015,-2.665978909,2.716976247
0.798366212,-0.447706938,0.256386876,-2.759296417,2.807114613
0.803134024,-0.355397821,0.36949718,-2.802064419,2.848578731
0.807901056,-0.24375397,0.455472231,-2.756581306,2.804569744
0.812667306,-0.100536585,0.511957407,-2.630525589,2.681766743
0.817434337,0.050515294,0.539031744,-2.481471539,2.539844092
0.822202149,0.197768927,0.534217358,-2.314261436,2.383339407
0.826969181,0.339116812,0.511651754,-2.093229771,2.181375392
0.831735431,0.486660123,0.506851554,-1.854311466,1.982979472
0.836502462,0.597646833,0.493258596,-1.645126343,1.818495659
0.841270274,0.698816061,0.461223841,-1.455947876,1.679540275
0.846037306,0.809642077,0.431984425,-1.24853611,1.549507423
0.850803556,0.899280071,0.419538856,-1.041973114,1.43889731
0.855570587,0.984543562,0.406847358,-0.859972954,1.36908885
0.860338399,1.041497827,0.386507511,-0.707055092,1.316826747
0.865105431,1.039413095,0.358595371,-0.602082253,1.253584166
0.869871681,1.002549529,0.323248863,-0.537651062,1.18265128
0.874638712,0.991145372,0.290352702,-0.477952957,1.138030259
0.879406524,0.979773641,0.272147059,-0.416022301,1.098678735
0.884173556,0.926362276,0.242814541,-0.394936562,1.035896161
0.888939806,0.884340406,0.176583767,-0.412304878,0.991582116
0.893706837,0.863547206,0.093101263,-0.463300705,0.98439279
0.898474649,0.82567358,0.0120188,-0.595439911,1.018052062
0.903241681,0.741757274,-0.054377913,-0.758255005,1.062125917
0.908007931,0.621159077,-0.096424818,-0.86581707,1.069941841
0.912774962,0.480661035,-0.135601521,-0.896978378,1.026641619
0.917542774,0.334590554,-0.183937669,-0.852101326,0.933734745
0.922309806,0.225866675,-0.277364731,-0.762493134,0.842224868
0.927076056,0.195126891,-0.40673089,-0.621209145,0.767727375
0.931843087,0.197058559,-0.52013886,-0.404664993,0.687844652
0.936610899,0.219791889,-0.592216194,-0.17034626,0.654252507
0.941377931,0.260660648,-0.621503949,0.012720108,0.674071905
0.946144181,0.28365016,-0.627921403,0.116336823,0.698768171
0.950911212,0.276482821,-0.623896837,0.155338287,0.699871415
0.955679024,0.250999212,-0.605185747,0.144420624,0.670900671
0.960446056,0.204791069,-0.59847784,0.098172188,0.640119431
0.965212306,0.154485226,-0.599218249,0.031086922,0.619592279
0.969979337,0.116701365,-0.593349934,-0.071013451,0.608872944
0.974747149,0.079338074,-0.588160634,-0.227011681,0.635422509
0.979514181,0.023374796,-0.581208706,-0.420013428,0.71746862
0.984280431,-0.039263487,-0.586815834,-0.652235031,0.878239706
0.989047462,-0.108688116,-0.597503781,-0.92350769,1.105301013
0.993815274,-0.194627523,-0.598802984,-1.209805489,1.363845375
0.998582306,-0.287551642,-0.604821503,-1.508701324,1.650658863
1.003348556,-0.401777983,-0.617659688,-1.813019753,1.957030828
1.008115587,-0.551554203,-0.639448881,-2.129909039,2.291204797
1.012883399,-0.68955493,-0.662713766,-2.478289127,2.656424766
1.017650431,-0.795236826,-0.677511752,-2.867377281,3.051766088
1.022416681,-0.872282147,-0.692875624,-3.299121857,3.482119728
1.027183712,-0.905203462,-0.689360321,-3.699217796,3.870248476
1.031951524,-0.906762242,-0.659739673,-3.950893402,4.106949339
1.036718556,-0.867631197,-0.63289243,-4.011896133,4.153149083
1.041484806,-0.808999658,-0.597491205,-3.864084721,3.992821924
1.046251837,-0.756595492,-0.563803732,-3.548988819,3.672278996
1.051019649,-0.728967547,-0.541940987,-3.181794643,3.308913851
1.055786681,-0.761460424,-0.530026197,-2.858039379,3.004852549
1.060552931,-0.820498824,-0.540449619,-2.601233006,2.780596566
1.065319962,-0.872603655,-0.56393373,-2.389525414,2.605626622
1.070087774,-0.967966676,-0.588956714,-2.191587448,2.467161332
1.074854806,-1.101599574,-0.601462841,-2.01202774,2.371399334
1.079621056,-1.237561822,-0.599322915,-1.898326874,2.344011975
1.084388087,-1.30925262,-0.594524264,-1.897702694,2.380940368
1.089155899,-1.292605758,-0.553299844,-1.976373672,2.425494435
1.093922931,-1.239804983,-0.463168651,-2.100788593,2.482932603
1.098689181,-1.188373566,-0.354307413,-2.280544758,2.595890958
1.103456212,-1.176168442,-0.258823574,-2.525084972,2.797573228
1.108224024,-1.200288296,-0.180150628,-2.820031166,3.070133876
1.112991056,-1.157803059,-0.119311631,-3.091493607,3.303343141
1.117757358,-1.06996727,-0.041622937,-3.258863926,3.430270618
1.122524389,-1.000978231,0.056418002,-3.296679974,3.445756703
1.127292149,-0.92921567,0.163815916,-3.23907423,3.37370409
1.132059233,-0.754636288,0.214254677,-2.998341084,3.099262855
1.136825483,-0.479905129,0.198410451,-2.379901409,2.435899496
1.141592514,-0.341492891,0.142320156,-1.423457146,1.470749016
1.146360326,-0.296080351,0.021273851,-0.258982182,0.393938982
1.151127358,-0.162008047,-0.17787391,1.170001984,1.19448331
1.155893608,0.055275202,-0.392158449,2.748321533,2.776709356
1.160660639,0.435479879,-0.513573289,4.318729401,4.370906529
1.165428451,1.014700651,-0.474990577,5.851215363,5.957512457
1.170195483,1.824230671,-0.261825264,7.330184937,7.558305446
1.174961733,2.905181408,0.093238652,8.732766151,9.203802318
1.179728764,4.136881828,0.517645836,10.02401161,10.85645233
1.184496576,5.495266438,0.968168855,11.1591835,12.47648511
1.189263608,6.953799248,1.442838907,12.06277561,13.99813072
1.194029858,8.423624039,1.90203917,12.70510101,15.36212182
1.198796889,9.842496872,2.278464317,13.15185928,16.584256
1.203564701,11.12031364,2.483906269,13.54205704,17.6979794
1.208331733,12.1655283,2.442475319,14.09239483,18.77661728
1.213097983,12.99437714,2.075706482,14.96613121,19.92855935
1.217865014,13.66028023,1.309370518,16.25496674,21.27302636
1.222632826,14.10349655,0.190348268,18.01279259,22.87805814
1.227399858,14.35720158,-0.94741714,20.20081329,24.80120348
1.23216616,14.53650284,-1.665418983,22.78954315,27.08222318
1.236933191,14.76217175,-1.873744607,25.62241936,29.63006931
1.241701004,15.08474922,-1.695517302,28.41093826,32.2118899
1.246468035,15.59661293,-1.219784498,30.82331085,34.56614964
1.251234285,16.41868401,-0.525140822,32.44736099,36.36867048
1.256001316,17.26957321,0.192311287,32.85401154,37.11685893
1.260769129,17.57588768,0.682553768,31.76026917,36.30554234
1.26553616,17.09383774,0.957098603,29.2261467,33.87156591
1.27030241,15.94211769,1.167636991,25.64804077,30.22145741
1.275069441,14.46994972,1.405802965,21.57119751,26.01292542
1.279837254,13.04465675,1.659596682,17.52648926,21.91107384
1.284604285,11.76509476,1.963415861,13.91174316,18.32509357
1.289370535,10.62754631,2.387881041,10.92302132,15.42592335
1.294137566,9.67637825,2.923099995,8.617417336,13.28294738
1.298905379,8.878986359,3.424627781,6.928643227,11.7716002
1.30367241,8.154981613,3.781090498,5.695846558,10.64157124
1.308438712,7.407848358,4.038695812,4.763507843,9.689080871
1.313205743,6.532052517,4.25049448,3.993401527,8.756807019
1.317973556,5.625268936,4.391047478,3.245329857,7.83945881
1.322740587,4.722599983,4.428450584,2.391591072,6.901726816
1.327506837,3.782562733,4.371865273,1.352695465,5.937236041
1.332273868,2.83316803,4.254727364,0.170789719,5.114559136
1.337041681,1.87389946,4.101082802,-1.012235641,4.621147079
1.341808712,0.875810623,3.904621601,-2.148511887,4.54193983
1.346574962,-0.144375324,3.632896662,-3.224051476,4.859350811
1.351341993,-1.083821297,3.258194685,-4.172690868,5.403873638
1.356109806,-1.906633377,2.781360388,-4.950145245,5.989587163
1.360876837,-2.617197037,2.260349751,-5.55318737,6.541925656
1.365643087,-3.245848179,1.724127531,-5.995506763,7.032371399
1.370410118,-3.822962999,1.177484035,-6.278559208,7.444583298
1.375177931,-4.362242222,0.637136936,-6.458528042,7.819698533
1.379944962,-4.891911507,0.072178364,-6.595976353,8.21236336
1.384711264,-5.47842741,-0.588757515,-6.658035755,8.642293817
1.389478295,-6.148814201,-1.378168106,-6.787444115,9.261569037
1.394246108,-6.589017868,-2.095442295,-7.075741291,9.893035414
1.399013139,-6.688775063,-2.572092533,-7.344398499,10.26136254
1.403779389,-6.865203857,-2.936006546,-7.482548714,10.57069977
1.40854642,-7.20017004,-3.343016148,-7.560970783,10.96295967
1.413314233,-7.458138466,-3.838460684,-7.700259686,11.38646605
1.418081264,-7.607320309,-4.374405861,-7.896477222,11.8051303
1.422847514,-7.763831615,-4.900649071,-8.088610649,12.23597421
1.427614545,-8.000339508,-5.395715714,-8.225551605,12.67986118
1.432382358,-8.300880432,-5.899953365,-8.278128624,13.12408013
1.437149389,-8.646805763,-6.415400505,-8.179411888,13.52136799
1.441915639,-9.028604507,-6.882155418,-7.901204109,13.83144204
1.446682722,-9.362401962,-7.278803825,-7.549296856,14.05800266
1.451450483,-9.598096848,-7.624606133,-7.202732563,14.21750464
1.456217566,-9.721319199,-7.922117233,-6.864052296,14.29612543
1.460983816,-9.739128113,-8.166963577,-6.557108402,14.30194326
1.465750847,-9.64421463,-8.352561951,-6.288784027,14.22409827
1.47051866,-9.390857697,-8.458169937,-5.996775627,13.98893008
1.475285691,-8.976343155,-8.47289753,-5.685559273,13.59008143
1.480051941,-8.393119812,-8.402659416,-5.445363522,13.06526423
1.484818972,-7.760197639,-8.289051056,-5.268146515,12.51728415
1.489586785,-7.210506439,-8.180381775,-5.179456711,12.07215063
1.494353816,-6.690396786,-8.124486923,-5.183495998,11.73189361
1.499120118,-6.180052757,-8.078255653,-5.238859177,11.44101883
1.503887149,-5.822248459,-7.965001583,-5.349560738,11.22308458
1.508654962,-5.728383541,-7.805545807,-5.517705441,11.14387709
1.513421993,-5.93833828,-7.729523659,-5.810534477,11.34776227
1.518188243,-6.432641983,-7.836844921,-6.219397068,11.8943651
1.522955274,-7.07479763,-8.122084618,-6.645684719,12.65646655
1.527723087,-7.718764305,-8.544260979,-7.001532555,13.47609647
1.532490118,-8.218510628,-9.027166367,-7.221552849,14.18395132
1.537256368,-8.504818916,-9.469319344,-7.278367043,14.66201147
1.542023399,-8.654384613,-9.803467751,-7.149096489,14.90355439
1.546791212,-8.705383301,-10.03462791,-6.801193237,14.92426498
1.551558243,-8.60274601,-10.15173149,-6.244304657,14.69885138
1.556324545,-8.315393448,-10.15610695,-5.542143345,14.24807459
1.561091576,-7.883944988,-10.10654449,-4.764788151,13.67486879
1.565859389,-7.367954731,-10.0258255,-3.965283394,13.05861426
1.57062642,-6.805401802,-9.915095329,-3.201056242,12.44465227
1.57539267,-6.248306751,-9.782684326,-2.488669395,11.87163532
1.580159701,-5.741576672,-9.667654037,-1.868560791,11.39827867
1.584927514,-5.349318504,-9.608633041,-1.374116659,11.08283511
1.589694545,-5.085611343,-9.596169472,-1.033737421,10.90956114
1.594460795,-4.907429695,-9.611150742,-0.868330896,10.82640676
1.599227826,-4.834065914,-9.653525352,-0.843638182,10.82914911
1.603995639,-4.837212086,-9.730256081,-0.922982454,10.90542988
1.608762722,-4.852816582,-9.824430466,-1.064869881,11.00923297
1.613528972,-4.862352371,-9.916846275,-1.222792625,11.11222446
1.618296004,-4.895068645,-9.957367897,-1.39780283,11.18323411
1.623063816,-5.006646156,-9.922122955,-1.593229055,11.22735091
1.627830847,-5.181178093,-9.827816963,-1.797949314,11.25447531
1.632597097,-5.476585388,-9.664897919,-1.939236164,11.27669616
1.637364129,-5.967122555,-9.392820358,-1.878354192,11.28538171
1.642131941,-6.61492157,-9.059319496,-1.835281253,11.36647326
1.646898972,-7.458712578,-8.580664635,-1.881567717,11.52390975
1.651665274,-8.554004669,-7.820870399,-1.656175494,11.70811372
1.656432306,-9.844147682,-6.873533249,-1.204544663,12.06663295
1.661200118,-11.26588631,-5.901115417,-0.913219333,12.75058144
1.665967149,-12.70645714,-4.974785328,-0.983989894,13.68103717
1.670733399,-14.08975124,-4.208319664,-1.317578435,14.76370744
1.675500431,-15.37156963,-3.762759686,-1.94641614,15.94465582
1.680268243,-16.52966309,-3.695956707,-2.888769627,17.18239936
1.685035274,-17.56791687,-3.889001369,-3.833644152,18.39708842
1.689801524,-18.43708801,-4.135093689,-4.700335503,19.47096218
1.694568608,-19.01802254,-4.314021111,-5.666495323,20.30776031
1.699336368,-18.89896202,-4.363505363,-6.828186035,20.5629538
1.704103451,-17.55670357,-4.274463654,-8.162867546,19.82779076
1.708869701,-15.03845787,-4.126417637,-9.510124207,18.26540446
1.713636733,-11.92615318,-4.000825882,-10.74611092,16.5444443
1.718404545,-8.635642052,-3.933401585,-11.66370964,15.03622573
1.723171576,-5.355324745,-3.995366096,-12.08491707,13.80897078
1.727937826,-2.27848053,-4.276553631,-12.01369476,12.95412082
1.732704858,0.549933672,-4.770896435,-11.4728651,12.43746411
1.73747267,3.351883411,-5.474572182,-10.66752148,12.44998303
1.742239754,6.362828255,-6.290706635,-9.692927361,13.1913386
1.747006004,9.523973465,-6.960577011,-8.157829285,14.34245033
1.751773035,12.81576729,-7.267582417,-5.706661224,15.79960847
1.756540847,16.27241707,-7.204545975,-2.395358324,17.95646907
1.761307879,19.47932053,-6.941420078,1.506648302,20.7339632
1.766074129,21.74497604,-6.680562973,5.595386028,23.42610189
1.77084116,22.88448715,-6.546377182,9.333192825,25.56683975
1.775608972,23.28762627,-6.607405186,12.27287292,27.14027911
1.780376056,23.44227791,-6.685569286,14.50422287,28.36564315
1.785142306,23.48615456,-6.312407017,16.53870773,29.41045378
1.789909337,23.20991707,-5.317090511,18.33005142,30.04933422
1.794677149,23.03902435,-4.221738815,19.48416328,30.46723389
1.799444181,23.35549164,-3.436032772,20.07535362,30.98879046
1.804210431,24.28912735,-2.74414897,20.30246162,31.77549384
1.808977462,25.33029366,-1.830366611,20.2035408,32.45238172
1.813745326,25.52493858,-0.60392642,19.75853348,32.28446781
1.818512358,24.93715286,0.789203644,19.04683685,31.38895394
1.823278608,23.90109062,2.000935555,18.02932549,30.00537374
1.828045639,22.38976288,2.689490795,16.48152733,27.9316234
1.832813451,20.66707993,3.050482035,14.68060017,25.53338314
1.837580483,18.96090508,3.469479799,13.25483513,23.39324402
1.842346733,16.99930191,3.898577213,12.35012436,21.37055782
1.847113816,14.8332653,4.144310951,11.74347115,19.36776155
1.851881629,12.63805389,4.166903496,11.1564827,17.36521227
1.85664866,10.55073738,4.080155373,10.37248802,15.34777622
1.86141491,8.727878571,4.022212029,9.305677414,13.37720771
1.866181941,7.114114761,4.040600777,8.031998634,11.46516836
1.870949754,5.669217587,4.108808517,6.727204323,9.709665982
1.875716785,4.494353294,4.186322212,5.44472599,8.207895364
1.880483087,3.564078808,4.259415627,4.199681282,6.96294493
1.885250118,2.855503559,4.364603043,3.004942894,6.019413766
1.890017931,2.354931831,4.486152172,1.818781853,5.383236264
1.894784962,1.962724209,4.600636959,0.771800041,5.061009983
1.899551212,1.702544212,4.768054008,0.029635429,5.062990626
1.904318243,1.537270069,5.017079353,-0.355176926,5.259318887
1.909086056,1.261149406,5.187765598,-0.418761253,5.355256363
1.913853087,0.878439426,5.115846634,-0.32080555,5.200621002
1.918619389,0.535032749,4.843033791,-0.24600029,4.878703976
1.92338642,0.201877594,4.523114681,-0.218384743,4.5328813
1.928154233,-0.136993408,4.318819046,-0.06410408,4.321466705
1.932921264,-0.403440952,4.294409752,0.256228447,4.320922672
1.937687514,-0.55015254,4.401609898,0.600343704,4.476298702
1.942454545,-0.644818783,4.585378647,0.847970009,4.707498458
1.947222358,-0.771633625,4.827183723,0.941182137,4.978247178
1.951989389,-0.948135853,5.123718262,0.822270393,5.275185212
1.956755691,-1.106879711,5.49602747,0.376702309,5.619021736
1.961522722,-1.214722633,5.93921566,-0.363919258,6.073077553
1.966290535,-1.374807119,6.410197735,-1.253471851,6.674722563
1.971057566,-1.63112247,6.868514061,-2.188966274,7.391117593
1.975823816,-2.018677711,7.295200825,-3.069876194,8.168179395
1.980590899,-2.505824327,7.651968956,-3.779130459,8.894583267
1.985358712,-2.902662277,7.909415245,-4.18338728,9.406648019
1.990125743,-3.120985031,8.03282547,-4.233622551,9.601582812
1.994891993,-3.134632587,7.955602646,-3.940488338,9.415146481
1.999659024,-2.835308313,7.698625088,-3.378336906,8.872483402
2.004426837,-2.390554428,7.277430534,-2.606569767,8.091350419
2.009193868,-2.034501553,6.740459442,-1.631752491,7.227420442
2.01396017,-1.711674094,6.13790226,-0.441222191,6.38735856
2.018727201,-1.404315591,5.438549995,0.941652298,5.695317145
2.023495014,-1.21522069,4.628181458,2.411923409,5.35856319
2.028262045,-1.130707145,3.735754967,3.940807343,5.546559864
2.033028295,-1.054038048,2.826274157,5.568195343,6.332741996
2.037795326,-0.947816134,1.909942627,7.209420204,7.518109865
2.042563139,-0.87953186,1.002017975,8.717731476,8.819096235
2.047330222,-1.000204802,0.173376083,9.948955536,10.00060924
2.052096472,-1.387070298,-0.578372598,10.74969196,10.85423218
2.056863504,-1.972314835,-1.280767918,10.98364639,11.2325812
2.061631316,-2.661083698,-1.92462039,10.59638214,11.09363983
2.066398347,-3.324489355,-2.459248781,9.607959747,10.46006809
2.071164597,-3.772995949,-2.812682152,8.17969799,9.436850032
2.075931681,-3.92031765,-2.932723999,6.60641861,8.222805323
2.080699493,-3.776077271,-2.811339855,5.139537811,6.969737459
2.085466524,-3.423991919,-2.522782326,3.891611099,5.764788658
2.090232774,-2.927882671,-2.175739765,2.963094711,4.699603253
2.094999806,-2.370207787,-1.855231285,2.389743805,3.843259492
2.099767618,-1.861827493,-1.619912624,2.011385918,3.183738657
2.104534701,-1.45153439,-1.480464935,1.656347275,2.653717168
2.109300951,-1.176129341,-1.442433119,1.227311134,2.22939143
2.114067983,-1.024871588,-1.496556878,0.677288055,1.93617235
2.118835795,-0.979884386,-1.62848115,0.023768425,1.900707553
2.123602826,-1.030478954,-1.804536343,-0.687228203,2.18872586
2.128369076,-1.098889709,-1.967229366,-1.4027071,2.654267729
2.13313616,-1.128516078,-2.087697506,-2.081922531,3.156965448
2.137903972,-1.103033543,-2.168065071,-2.751256943,3.672411185
2.142671004,-0.998620987,-2.208059311,-3.415622234,4.187988186
2.147437254,-0.822192788,-2.185763836,-4.027496815,4.655566036
2.152204285,-0.611428738,-2.098364353,-4.592103004,5.085704284
2.156972097,-0.408466935,-1.971642613,-5.155347824,5.534603059
2.161739181,-0.219821692,-1.826505184,-5.739099503,6.026749195
2.166505431,-0.050041437,-1.671878338,-6.317306519,6.534986073
2.171272462,0.110388279,-1.512331963,-6.863747597,7.029250643
2.176040274,0.266347885,-1.385672569,-7.369103432,7.502980411
2.180807306,0.370145321,-1.308268309,-7.845525742,7.962464925
2.185573556,0.402607203,-1.272587776,-8.254899979,8.36211372
2.190340639,0.463991165,-1.316516876,-8.604568481,8.717058176
2.195108451,0.5734272,-1.458789349,-8.921030998,9.057686194
2.199875483,0.702319384,-1.696586847,-9.1997118,9.381170324
2.204641733,0.810332298,-2.051029682,-9.431294441,9.685694401
2.209408764,0.809408426,-2.483607292,-9.584914207,9.934486778
2.214176576,0.673885346,-2.958124161,-9.653775215,10.11928831
2.218943608,0.447747707,-3.424141407,-9.619263649,10.22034518
2.22370991,0.167971373,-3.881386518,-9.484472275,10.24932144
2.228476941,-0.140319586,-4.317610741,-9.324272156,10.27635652
2.233244754,-0.404376268,-4.696694374,-9.170391083,10.31108776
2.238011785,-0.554102898,-5.018400669,-9.049730301,10.3628661
2.242778087,-0.555880308,-5.249074459,-9.015259743,10.4468509
2.247545118,-0.416949987,-5.371926308,-9.088687897,10.56577906
2.252312931,-0.249758959,-5.396479607,-9.198467255,10.66752884
2.257079962,-0.142578125,-5.327215672,-9.318764687,10.73493971
2.261846212,0.016984224,-5.209482193,-9.466567039,10.80531743
2.266613243,0.370157003,-5.038486004,-9.589622498,10.83901366
2.271381056,0.931675911,-4.804850578,-9.645393372,10.81610939
2.276148139,1.625354767,-4.547279358,-9.624660492,10.76817613
2.280914389,2.310355663,-4.273684978,-9.589533806,10.7499435
2.28568142,2.809633017,-4.049179077,-9.551603317,10.74816332
2.290449233,3.045625448,-3.983886719,-9.500540733,10.74278651
2.295216264,3.045659781,-4.072847843,-9.404447556,10.69148104
2.299982566,2.822463989,-4.258559227,-9.219428062,10.54037397
2.304749597,2.38188839,-4.538585663,-8.827717781,10.20787702
2.30951741,1.768255472,-4.922507286,-8.157232285,9.690110626
2.314284441,1.085763216,-5.39589262,-7.360750198,9.191038157
2.319050691,0.467857838,-5.853049755,-6.593747139,8.829189302
2.323817774,0.017748356,-6.200271606,-5.837545395,8.5159039
2.328585587,-0.261332035,-6.413197041,-5.059502125,8.17287908
2.333352618,-0.403897762,-6.508342743,-4.25342226,7.785451791
2.338118868,-0.429881573,-6.485682964,-3.377254486,7.324938876
2.342885899,-0.376162767,-6.283350945,-2.431773663,6.748001235
2.347653712,-0.248671055,-5.897171021,-1.398442745,6.065814492
2.352420743,-0.001212358,-5.380448818,-0.337328911,5.391013054
2.357187045,0.457575321,-4.781935692,0.701414585,4.854715909
2.361954076,1.152053356,-4.085945606,1.7298913,4.584179571
2.366721889,2.029346943,-3.251033783,2.708204269,4.692743338
2.37148892,2.966563225,-2.226548195,3.594662189,5.165230923
2.376255222,3.746755362,-1.019084454,4.357610226,5.836563693
2.381022254,4.309954643,0.210029125,5.020659447,6.620184479
2.385790066,4.731438637,1.328781128,5.624457359,7.469048898
2.390557097,5.114748001,2.365655422,6.25028038,8.415638866
2.395323347,5.535030365,3.413673639,7.000548363,9.554967621
2.400090431,6.00588274,4.504076004,7.941171646,10.92792456
2.404858243,6.606522083,5.625580788,9.077578545,12.55769587
2.409625274,7.400540352,6.702940464,10.41213322,14.42601561
2.414391524,8.378919601,7.594470978,12.11842728,16.57523945
2.419158556,9.506225586,8.170353889,14.54311371,19.19961364
2.423926368,10.80871582,8.450095177,17.99810982,22.63104954
2.428693451,12.24872875,8.635164261,22.38625145,26.93959302
2.433459701,13.63951111,8.874797821,27.58837891,32.02993834
2.438226733,14.8435688,9.195285797,33.41997528,37.70649232
2.442994545,15.91800117,9.632492065,38.81087112,43.04011364
2.447761576,16.92958641,10.27837563,42.45951843,46.85153794
2.452527879,17.7415638,11.12150288,43.67978668,48.43939179
2.45729491,18.12360382,12.01222801,42.31865692,47.57759305
2.462062722,18.03475761,12.64180851,38.57040024,44.41557811
2.466829754,17.52931213,12.91185951,33.21152496,39.71143778
2.471596056,16.57967567,13.06571579,27.54616737,34.70432122
2.476363087,15.37784576,13.2349968,22.54039001,30.32676149
2.481130899,14.21198368,13.37712479,18.46565056,26.86834938
2.485897931,13.34135246,13.35710621,15.1156702,24.1844466
2.490664181,12.7905407,13.08182144,12.3499651,22.07382208
2.495431264,12.22592545,12.59117508,10.28215504,20.34044383
2.500199076,11.54104805,11.85531998,8.83528614,18.75651042
2.504966108,10.80087852,10.77774048,7.658452988,17.07250916
2.509732358,9.937767029,9.34382534,6.43549633,15.08250306
2.514499441,8.806948662,7.70183897,5.078167915,12.75415452
2.519267254,7.270395279,6.049991608,3.694629669,10.15437513
2.524034285,5.328119278,4.461404324,2.460207939,7.371947279
2.528800535,3.065302372,2.949132919,1.490365982,4.507178094
2.533567566,0.524158001,1.506865025,0.80433178,1.786710224
2.538335379,-2.114531994,0.140185356,0.232120514,2.131848358
2.543102462,-4.379369736,-1.061657429,-0.467797279,4.530433762
2.547868712,-6.076705933,-2.12187314,-1.386538506,6.58416203
2.552635743,-7.354877472,-3.044259071,-2.498458862,8.342903128
2.557403556,-8.334980011,-3.753517628,-3.716443539,9.867762611
2.562170587,-9.1317873,-4.289143562,-4.863315105,11.19991632
2.566936889,-9.906858444,-4.697084904,-5.958695412,12.47856169
2.57170392,-10.5464859,-4.974993706,-7.108323574,13.65676357
2.576471733,-10.86779976,-5.148806572,-8.276845932,14.59881705
2.581238764,-10.94656754,-5.263068676,-9.498317719,15.41899063
2.586005066,-10.86063385,-5.340461254,-10.78769112,16.21259306
2.590772097,-10.72807884,-5.403511047,-12.05235863,17.0161381
2.59553991,-10.60436344,-5.429159641,-13.20230103,17.78283022
2.600306941,-10.43411636,-5.389615059,-14.18121719,18.41264934
2.605073191,-10.18976593,-5.341248035,-14.87783051,18.80718216
2.609840274,-9.917406082,-5.354944229,-15.24306107,18.95735429
2.614608087,-9.593042374,-5.422590256,-15.34755707,18.89387348
2.619375118,-9.173383713,-5.517292976,-15.23064804,18.61623298
2.624141368,-8.694084167,-5.629267693,-14.90035343,18.14652272
2.628908451,-8.219725609,-5.729781151,-14.38604736,17.53147569
2.633676264,-7.786275864,-5.911616325,-13.86553288,16.96544433
2.638443295,-7.331681252,-6.164717674,-13.43271828,16.49833974
2.643209545,-6.794017792,-6.390651703,-12.99269104,15.99403412
2.647976576,-6.231077194,-6.541586399,-12.50084305,15.42367507
2.652744441,-5.698207855,-6.600915432,-11.95575905,14.79803473
2.657511472,-5.219691277,-6.616590977,-11.40872765,14.18391764
2.662277722,-4.767310619,-6.629285336,-10.92064857,13.63580727
2.667044754,-4.354141235,-6.646101952,-10.49725151,13.1651626
2.671812566,-4.036671162,-6.676365852,-10.16102505,12.81073788
2.676579649,-3.800165176,-6.743586063,-9.972579002,12.62416494
2.681345899,-3.572793722,-6.80922842,-9.903786659,12.53855801
2.686112931,-3.37872982,-6.854090214,-9.852200508,12.46836889
2.690880743,-3.273243427,-6.87327528,-9.784869194,12.39756834
2.695647774,-3.199020624,-6.8501544,-9.654430389,12.26239676
2.700414076,-3.153946877,-6.789745331,-9.408595085,12.0237134
2.705181108,-3.214820147,-6.732948303,-9.095411301,11.76410507
2.70994892,-3.314871311,-6.715705872,-8.801165581,11.5563659
2.714715951,-3.370738745,-6.747558594,-8.537904739,11.39242046
2.719482254,-3.349309921,-6.821365833,-8.279351234,11.23817448
2.724249285,-3.286860466,-6.898993492,-8.04454422,11.09568631
2.729017097,-3.224411249,-7.002052784,-7.821430206,10.98181868
2.733784129,-3.198060036,-7.152183533,-7.583556175,10.90374438
2.738550431,-3.239172935,-7.347006321,-7.318832397,10.86443974
2.743317462,-3.338494301,-7.562614441,-7.034248352,10.85446135
2.748085274,-3.479621172,-7.787023544,-6.78222847,10.89697766
2.752852306,-3.608037949,-8.013069153,-6.595860481,10.9878383
2.757618608,-3.700065851,-8.231301308,-6.443744659,11.08903304
2.762385639,-3.770353317,-8.456255913,-6.289606094,11.19298767
2.767153451,-3.807241201,-8.680953979,-6.176046848,11.31360253
2.771920483,-3.684488058,-8.845890999,-6.190852165,11.40841314
2.776686733,-3.445569277,-8.915529251,-6.29515934,11.44498321
2.781453816,-3.56949687,-8.940347672,-6.272945404,11.49003779
2.786221629,-3.992123842,-8.980223656,-6.2192173,11.63013901
2.79098866,-4.147274017,-9.006464958,-6.374840736,11.78791276
2.79575491,-3.844729662,-8.933122635,-6.8083148,11.87163749
2.800521993,-3.513748169,-8.760235786,-7.337219238,11.95503841
2.805289806,-3.442083597,-8.52836895,-7.827214241,12.07668411
2.810056837,-3.374629498,-8.275490761,-8.399972916,12.26504858
2.814823087,-3.17848587,-8.003644943,-9.026483536,12.47551642
2.81959017,-2.890355349,-7.695950985,-9.579753876,12.62352961
2.824357983,-2.553710938,-7.373919487,-9.988039017,12.67505627
2.829125014,-2.187677622,-7.071035862,-10.23007202,12.62694956
2.833891264,-1.806450605,-6.82579422,-10.27477074,12.46698216
2.838658347,-1.431331873,-6.667056561,-10.08634472,12.17508538
2.84342616,-1.112421989,-6.602079391,-9.712641716,11.79662427
2.848193191,-0.842047453,-6.630897522,-9.182582855,11.35771428
2.852959441,-0.552649021,-6.724853992,-8.498868942,10.85172131
2.857726524,-0.207649231,-6.874417305,-7.738494873,10.35302054
2.862494337,0.215251923,-7.077120781,-6.933176041,9.909636822
2.867261368,0.700636864,-7.32087183,-6.050580502,9.523422745
2.872027618,1.188058376,-7.605419159,-5.032621861,9.196801948
2.876794701,1.595674992,-7.904091358,-3.89801836,8.956304261
2.881562514,1.949439049,-8.202239037,-2.751589298,8.868386634
2.886329545,2.291721344,-8.447020531,-1.621269226,8.901272744
2.891095795,2.538303375,-8.547412872,-0.449028492,8.927646802
2.895862826,2.616482735,-8.467325211,0.756473541,8.894595569
2.900630691,2.455213547,-8.196954727,1.800921917,8.744224386
2.905397722,2.085136414,-7.769309998,2.510325909,8.426844479
2.910163972,1.671674252,-7.243629932,2.819779396,7.950838021
2.914931004,1.362485886,-6.689026833,2.813713551,7.383524341
2.919698868,1.312226295,-6.117665291,2.789528847,6.850491781
2.924465899,1.558766842,-5.528030396,2.946190357,6.455146144
2.929232149,2.073723793,-4.84477663,3.235643864,6.183977861
2.933999181,2.764188766,-4.03315115,3.504452229,6.015665645
2.938767045,3.42649889,-3.232272625,3.520533085,5.880700143
2.943534076,4.000585079,-2.501586914,3.266879559,5.738912799
2.948300326,4.53914547,-1.765741825,2.907305717,5.672222873
2.95306741,5.095420837,-1.00151062,2.475584984,5.752813055
2.957835222,5.771670818,-0.259383678,1.990138054,6.110655726
2.962602254,6.692872047,0.417599678,1.552205563,6.883187332
2.967368504,7.972680569,1.062613487,1.18155241,8.129504842
2.972135535,9.598377228,1.679885864,0.969640732,9.792398331
2.976903399,11.3930397,2.192021847,1.163025379,11.66014329
2.981670431,13.27884102,2.50440073,1.952737808,13.65330827
2.986436681,15.25814152,2.555052996,3.483663082,15.85796604
2.991203712,17.16932106,2.324575424,5.849574566,18.28679193
2.995971576,18.69537926,1.853047848,8.778469086,20.73674303
3.000738608,19.62460709,1.218587399,11.89856625,22.98229835
3.005504858,19.90453339,0.499114513,14.9233408,24.88263783
3.010271941,19.51751518,-0.203779936,17.63711166,26.3067032
3.015039754,18.55264091,-0.774915457,20.04791069,27.32617247
3.019806785,17.22745514,-1.063878179,22.19783592,28.11869426
3.024573035,15.62906075,-1.111909628,23.96246719,28.63046833
3.029340118,13.84339714,-1.027380824,25.14183998,28.7194581
3.034107931,11.98792076,-0.789827645,25.79800224,28.4582324
3.038874962,10.0673027,-0.455156028,25.85795593,27.75232667
3.043641212,8.089802742,-0.045517027,25.24154282,26.50627216
3.048408295,6.288373947,0.429172099,24.13538361,24.94483067
3.053176108,4.831134796,0.963709354,22.74637413,23.27372199
3.057943139,3.666810513,1.626852393,21.27741432,21.65226335
3.062709389,2.769505978,2.410701513,19.91056061,20.24628531
3.067476472,2.066333294,3.252593994,18.72164536,19.11410751
3.072244285,1.525534153,4.030539513,17.58289719,18.10333606
3.077011316,1.106332779,4.613933563,16.36177444,17.0358451
3.081777618,0.728023529,5.007055283,15.05971527,15.88696462
3.086544649,0.341724873,5.301167011,13.71885395,14.71142757
3.091312462,-0.079422951,5.504193306,12.31931305,13.49325483
3.096079493,-0.526105404,5.600645065,10.86304569,12.23314243
3.100845795,-0.895504952,5.592094898,9.395277977,10.97017332
3.105612826,-1.384773493,5.525419235,8.19745636,9.982291627
3.110380639,-2.091913223,5.425850868,7.404632568,9.41512305
3.11514767,-2.901857376,5.266204357,6.762137413,9.048767151
3.119913972,-3.775986195,5.086290836,6.161522865,8.837012517
3.124681004,-4.568502903,4.880753994,5.549713135,8.688630168
3.129448816,-5.218203068,4.617959499,4.89319706,8.514609249
3.134215847,-5.621519566,4.26638031,4.137270927,8.180494722
3.138982149,-5.8133111,3.832740784,3.315504074,7.712136872
3.143749181,-5.95480442,3.393314362,2.547216415,7.311811643
3.148516993,-6.056596279,3.021820307,1.755501747,6.992534794
3.153284024,-6.072145462,2.763266802,0.870715141,6.72790746
3.158050326,-5.964760303,2.633685112,-0.066750526,6.520668553
3.162817358,-5.717134476,2.61298418,-1.033315182,6.370325989
3.16758517,-5.333400249,2.645137787,-1.976946354,6.272976089
3.172352254,-4.875000954,2.700488567,-2.843476772,6.25648727
3.177118504,-4.42246294,2.763494015,-3.617152691,6.346563733
3.181885535,-4.010822296,2.794479847,-4.270349979,6.490893779
3.186653347,-3.66052413,2.779904842,-4.794812679,6.642103317
3.191420431,-3.392372131,2.694069624,-5.205988407,6.772629852
3.196186681,-3.194194078,2.570631266,-5.516513824,6.873350398
3.200953712,-3.053889036,2.442888975,-5.693475723,6.907214388
3.205721576,-2.980943918,2.295969009,-5.713413239,6.841095758
3.210488608,-2.968258142,2.143911839,-5.622120857,6.709333596
3.215254858,-3.023339987,1.978976011,-5.503270149,6.583533479
3.220021889,-3.101379633,1.802929878,-5.363622665,6.452717247
3.224789754,-3.131558418,1.629740238,-5.205000877,6.289256355
3.229556785,-3.112519503,1.497195959,-5.05064249,6.118689644
3.234323035,-3.054758549,1.409641266,-4.904681206,5.947649621
3.239090118,-2.951943874,1.349776506,-4.711450577,5.721331645
3.243857931,-2.840384007,1.285876513,-4.408399582,5.399559851
3.248624962,-2.74432373,1.20293498,-3.961731672,4.967261131
3.253391212,-2.666168451,1.114601612,-3.390436172,4.454867945
3.258158295,-2.61785841,1.020365238,-2.766123772,3.94281227
3.262926108,-2.589694023,0.94384408,-2.181960106,3.515438335
3.267693139,-2.55486846,0.887568474,-1.67647171,3.182088628
3.272459441,-2.510222673,0.839910746,-1.226301193,2.917273136
3.277226472,-2.45502305,0.791713715,-0.879876137,2.725459741
3.281994285,-2.415112257,0.667145968,-0.697458267,2.600826598
3.286761316,-2.440463543,0.412416458,-0.629332542,2.553822447
3.291527618,-2.628920317,0.019627571,-0.645176411,2.707002008
3.296294649,-3.018610716,-0.494894981,-0.738752842,3.146853581
3.301062462,-3.543046951,-1.078752279,-0.929915428,3.81859017
3.305829493,-4.143885612,-1.693612814,-1.307505131,4.663655433
3.310595795,-4.725790977,-2.274963856,-1.89730835,5.577485086
3.315362826,-5.154612064,-2.760625124,-2.745575428,6.459818963
3.320130639,-5.331122398,-3.091001034,-3.84978652,7.266086269
3.324897722,-5.136833191,-3.229238987,-4.867412567,7.778608151
3.329663972,-4.453773499,-3.181041002,-5.236558437,7.574738576
3.334431004,-3.321099997,-2.982874155,-4.513921738,6.348443342
3.339198868,-1.880693674,-2.674506903,-2.790782452,4.298658228
3.343965899,-0.292048931,-2.343846321,-0.543741703,2.423749821
3.348732149,1.225858212,-2.049433231,1.901492596,3.052634766
3.353499181,2.401227951,-1.765378475,4.308016777,5.238460211
3.358267045,3.524663925,-1.618735075,6.577564716,7.635962063
3.363034076,4.712790966,-1.754792452,8.699020386,10.04801726
3.367800326,5.625415802,-2.200833559,10.481287,12.09736949
3.37256741,6.255208015,-2.861607552,11.83079529,13.68517966
3.377335222,6.661958218,-3.467020273,12.84460354,14.8790375
3.382102254,6.85936594,-3.890389681,13.55986023,15.68616723
3.386868556,6.804993629,-4.155272007,13.9066267,16.03023674
3.391635587,6.314045906,-4.236022472,13.7461071,15.70880398
3.396403399,5.298270702,-4.175424099,12.94084072,14.59353273
3.401170431,4.06498909,-4.112012863,11.59190178,12.95395588
3.405936733,2.980331421,-4.139315605,9.947162628,11.17865615
3.410703764,2.175907135,-4.275068283,8.178125381,9.481166354
3.415471576,1.559390068,-4.466077328,6.575368404,8.100186031
3.42023866,0.976793289,-4.673933506,5.366917133,7.183563118
3.42500491,0.391393662,-4.889315128,4.477236748,6.641102342
3.429771941,-0.154893875,-5.069685459,3.771560192,6.320630431
3.434539754,-0.649055958,-5.146476269,3.163330078,6.075701507
3.439306837,-1.070981503,-5.118478298,2.606888771,5.843089126
3.444073087,-1.379309177,-5.037019253,2.037493706,5.605839577
3.448840118,-1.55211401,-4.931928158,1.431178093,5.364815373
3.453607983,-1.639116764,-4.8161273,0.847299576,5.157489943
3.458375014,-1.663635492,-4.71205759,0.299472809,5.006081676
3.463141264,-1.624846935,-4.594011784,-0.249408245,4.879270058
3.467908347,-1.538728714,-4.436109543,-0.822271824,4.766852723
3.47267616,-1.428407669,-4.250712395,-1.3823843,4.692535635
3.477443191,-1.283183575,-4.02622366,-1.914874077,4.639372778
3.482209493,-1.089595318,-3.786834478,-2.431499958,4.630283509
3.486976524,-0.888998509,-3.547068357,-2.915463448,4.67674453
3.491744337,-0.737001896,-3.292583704,-3.364427567,4.764834949
3.496511368,-0.667349339,-3.039917946,-3.764355659,4.88434538
3.50127767,-0.685023069,-2.795893669,-4.127578259,5.032214254
3.506044701,-0.754113197,-2.540908575,-4.464177132,5.19170305
3.510812514,-0.857730866,-2.276779652,-4.765205383,5.350384114
3.515579597,-1.017589092,-2.01450491,-5.086332321,5.564574923
3.520345847,-1.231156826,-1.752902269,-5.466691017,5.871381794
3.525112879,-1.393078327,-1.519337893,-5.897643089,6.247499409
3.529880691,-1.457557678,-1.317050695,-6.335000038,6.63259545
3.534647774,-1.503096581,-1.130073547,-6.761037827,7.017691789
3.539414024,-1.519766092,-0.961811543,-7.162637711,7.384994881
3.544181056,-1.449919462,-0.839881897,-7.490589619,7.675715008
3.54894892,-1.271714211,-0.770611286,-7.721927643,7.863794587
3.553715951,-0.982352018,-0.753409386,-7.852695942,7.94968394
3.558482201,-0.612792969,-0.802182674,-7.883455753,7.947822776
3.563249285,-0.205937147,-0.90957737,-7.807351112,7.862853966
3.568017097,0.21196413,-1.039714336,-7.602969646,7.676658266
3.572784129,0.631466389,-1.1593256,-7.253564358,7.372718735
3.577550431,1.053087473,-1.268962383,-6.720840931,6.920185082
3.582317462,1.492102623,-1.364656448,-5.96895504,6.302148977
3.587085274,1.93528986,-1.440271854,-5.019462585,5.569087403
3.591852358,2.345887661,-1.532995224,-3.922599316,4.820793365
3.596618608,2.685065269,-1.641850471,-2.754941463,4.182696611
3.601385639,2.930928707,-1.741856575,-1.53101635,3.737434746
3.606153451,3.075631618,-1.843652725,-0.356263638,3.6035384
3.610920535,3.12049818,-1.943420887,0.62586689,3.729088763
3.615686785,3.073554039,-2.034562826,1.367722988,3.931519617
3.620453868,2.928257465,-2.110161066,1.857478142,4.05927291
3.625221681,2.668386459,-2.141524553,2.138226509,4.034653184
3.629988712,2.327768326,-2.142802954,2.212336063,3.860639938
3.634755014,1.984988213,-2.111087799,2.029763699,3.537910481
3.639522045,1.729752541,-2.062502623,1.562425137,3.112415979
3.644289858,1.589208126,-1.996606112,0.887758255,2.701875858
3.649056889,1.514073372,-1.874921083,0.197927475,2.418041052
3.653823191,1.469718933,-1.721271515,-0.389359951,2.296617195
3.658590222,1.431138039,-1.547554255,-0.911952496,2.296679693
3.663358035,1.407023907,-1.353898525,-1.374179363,2.387703167
3.668125118,1.437134743,-1.135756969,-1.75163269,2.53446587
3.672891368,1.523033619,-0.891011715,-2.094120502,2.738407194
3.677658399,1.64971447,-0.651229382,-2.377257347,2.965975393
3.682426264,1.785626888,-0.426384211,-2.574428082,3.161953008
3.687193295,1.877921104,-0.224075794,-2.69022131,3.288478118
3.691959545,1.914709091,-0.054290771,-2.741304874,3.344220508
3.696726629,1.893727779,0.073123455,-2.753982544,3.343048279
3.701494441,1.786312103,0.160444975,-2.768894672,3.299004581
3.706261472,1.614083767,0.224523783,-2.810023785,3.248370515
3.711027774,1.415409088,0.260825396,-2.899013042,3.236616967
3.715794806,1.195137501,0.291301966,-3.045600414,3.284644937
3.720562618,0.972521305,0.321212053,-3.223698139,3.382484969
3.725329649,0.742907047,0.353535175,-3.428825855,3.526151549
3.730095951,0.508741379,0.388931513,-3.646925926,3.702722542
3.734862983,0.2846241,0.449607611,-3.854489803,3.891047356
3.739630847,0.089913845,0.526732445,-4.07348299,4.108381097
3.744397879,-0.027527809,0.594568968,-4.299362183,4.340366945
3.749164129,-0.063012123,0.67757082,-4.484472752,4.535809586
3.753931212,-0.0165658,0.783200741,-4.602664948,4.668854511
3.758699024,0.085482597,0.89968729,-4.601463318,4.689371937
3.763466056,0.209887981,1.014884233,-4.485787868,4.603947846
3.768232358,0.345285893,1.128558159,-4.236787319,4.398094207
3.772999389,0.449155808,1.225959301,-3.902477264,4.115099749
3.777767201,0.509965897,1.290081263,-3.552316666,3.813571629
3.782534233,0.573477745,1.337254047,-3.179055691,3.496215124
3.787300535,0.656591892,1.359826326,-2.770616055,3.155400747
3.792067566,0.761915207,1.366852522,-2.303018093,2.784365805
3.796835431,0.842011929,1.367329359,-1.785889149,2.401660616
3.801602462,0.866216183,1.360807896,-1.269544125,2.052771514
3.806368712,0.827693939,1.33259964,-0.82096529,1.770560099
3.811135795,0.719647884,1.285179615,-0.418741703,1.531314577
3.815903608,0.573575974,1.245056629,-0.079797745,1.373143506
3.820670639,0.428365231,1.227051258,0.14287281,1.30750304
3.825436941,0.310939789,1.19575119,0.282421112,1.267385555
3.830203972,0.236493588,1.17079258,0.390972138,1.256798987
3.834971785,0.205993176,1.169156313,0.511035919,1.292484964
3.839738868,0.213088512,1.174230099,0.666074753,1.366703558
3.844505118,0.196359158,1.178582668,0.858181953,1.471084732
3.849272149,0.142052651,1.196309805,1.075239182,1.61476791
3.854040014,0.083883762,1.258057833,1.293445587,1.806307693
3.858807045,0.060183048,1.368152738,1.469974518,2.009051765
3.863573295,0.080591679,1.497661233,1.576332092,2.175846284
3.868340379,0.114368916,1.61547029,1.610207558,2.283767257
3.873108191,0.209504604,1.721437097,1.593374252,2.355011542
3.877875222,0.36820364,1.829746008,1.533399582,2.415545208
3.882641524,0.489889145,1.913823843,1.42828083,2.437765207
3.887408556,0.509855747,1.985319972,1.35021019,2.454488914
3.892176368,0.45442915,2.075068474,1.285162926,2.482752257
3.896943451,0.361519575,2.139861584,1.171430588,2.466161719
3.901709701,0.245181561,2.170015812,0.995153427,2.399877698
3.906476785,0.128876925,2.191865921,0.790335655,2.333562925
3.911244597,0.040652514,2.195832729,0.562288284,2.267047004
3.916011629,-0.063257217,2.201077938,0.309122086,2.223578654
3.920777879,-0.202592135,2.224301338,0.040852547,2.233882035
3.925544962,-0.323265314,2.272827625,-0.287467957,2.313629984
3.930312774,-0.343006373,2.366081476,-0.687178612,2.487611177
3.935079806,-0.268515825,2.489934921,-1.128926277,2.747062285
3.939846108,-0.144844055,2.613563538,-1.55717802,3.045734321
3.944613139,0.023667574,2.71803546,-1.930926323,3.334179566
3.949381004,0.206585407,2.791289806,-2.183054924,3.549606332
3.954148035,0.366312027,2.804287672,-2.265742779,3.623783132
3.958914285,0.463198185,2.737392426,-2.195934772,3.539773916
3.963681368,0.500974894,2.623161316,-1.902206898,3.278771449
3.968449181,0.521927595,2.472255468,-1.334851265,2.857670977
3.973216212,0.551853895,2.268847704,-0.547138214,2.398243701
3.977982514,0.633712411,2.047422171,0.398076057,2.179906767
3.982749545,0.741898775,1.854772091,1.454627991,2.471140606
3.987517358,0.829510927,1.677855134,2.583604813,3.190344818
3.992284441,0.930462003,1.477335095,3.698455811,4.089847663
3.997050691,1.111793399,1.245084405,4.806080818,5.087704057
4.001817774,1.340230584,0.966073751,5.961218834,6.185923253
4.006585587,1.579911947,0.627945304,7.046472549,7.248669702
4.011352618,1.863835216,0.29324916,7.925614357,8.14710008
4.01611892,2.298131466,0.027631149,8.551255226,8.854724031
4.020885951,2.987556934,-0.107722879,8.938445091,9.425120758
4.025653764,3.853945255,-0.13505961,9.198047638,9.973726258
4.030420847,4.797450066,-0.179734722,9.543716431,10.68318094
4.035187097,5.743128777,-0.32472086,10.22472954,11.7317546
4.039954129,6.521191597,-0.600903988,11.31562519,13.0740353
4.044721993,7.058900356,-1.00362277,12.82397556,14.67275305
4.049489024,7.52823782,-1.509944558,14.80294514,16.6757753
4.054255326,8.022195816,-2.13884306,17.32744026,19.21380913
4.059022358,8.441426277,-2.941488981,20.49386597,22.35863541
4.06379017,8.66973877,-3.923562527,24.09701157,25.90800416
4.068557201,8.936883926,-5.102070332,27.64709091,29.50018054
4.073323504,9.470377922,-6.548412323,30.88900185,32.96513608
4.078090535,10.16488266,-8.19675827,33.65865326,36.10286173
4.082858399,10.87799644,-9.756088257,35.96847534,38.82323123
4.087625431,11.51329422,-10.81819439,38.0637207,41.21208691
4.092391681,11.77734756,-11.10617065,39.83408737,42.99776109
4.097158764,11.26211262,-10.6452713,40.64091492,43.49529799
4.101926576,10.22319984,-9.841291428,39.82798767,42.28041431
4.106693608,9.331047058,-9.107385635,37.30496597,39.5180136
4.11145991,8.908348083,-8.501081467,33.24523163,35.45239735
4.116226941,8.811321259,-7.868854523,27.93244171,30.32786761
4.120994806,8.881484985,-6.973935127,21.93431091,24.67043862
4.125761837,9.175310135,-5.607492447,15.85976219,19.16148075
4.130528139,9.528909683,-3.749613285,10.2228899,14.46952651
4.13529517,9.658886909,-1.648036957,5.205431938,11.09534334
4.140062983,9.436882019,0.382117748,0.626169205,9.465349655
4.144830014,8.895226479,2.166824341,-3.626482487,9.847413724
4.149596316,7.654050827,3.596413612,-6.983064651,10.96730946
4.154363347,6.07587862,4.518229008,-9.496760368,12.14574625
4.159131212,5.097267151,5.030167103,-11.69399929,13.71256114
4.163898243,4.652711868,5.472175121,-13.00967598,14.86082425
4.168664493,4.219950199,5.943244934,-13.13166618,15.01901451
4.173431576,3.32611227,6.205321789,-12.53850555,14.37995698
4.178199389,1.828704357,5.950278282,-11.91740608,13.44524224
4.18296642,-0.120492458,5.117824554,-11.67397308,12.74708963
4.187732722,-2.031444073,3.894363403,-11.73700905,12.53196763
4.192499754,-3.483058214,2.575579643,-11.82541847,12.59388054
4.197267566,-4.382900238,1.42426157,-11.30253792,12.20596981
4.202034649,-4.814941883,0.563769817,-10.21891212,11.31051134
4.206800899,-5.021549225,-0.077923775,-9.360547066,10.6227054
4.211567983,-5.215220928,-0.594186306,-8.695203781,10.15668034
4.216335795,-5.326810837,-1.016052008,-8.116077423,9.761044417
4.221102826,-5.251591682,-1.338092804,-7.762910366,9.46744342
4.225869129,-5.095335484,-1.582638264,-7.586854935,9.275104062
4.23063616,-5.004085541,-1.807024956,-7.628139019,9.300253555
4.235404024,-5.008909225,-2.060986996,-7.881655693,9.563332865
4.240171056,-5.121540546,-2.360500813,-8.196610451,9.949199191
4.244937306,-5.310235023,-2.695389509,-8.429650307,10.32098469
4.249704389,-5.51874733,-3.043905973,-8.447245598,10.53934978
4.254472201,-5.771778107,-3.401183128,-8.190292358,10.58122668
4.259239233,-6.117665291,-3.826792479,-7.77453661,10.60724228
4.264005535,-6.561776161,-4.370517731,-7.260639191,10.7179855
4.268772566,-7.057478905,-4.960151196,-6.696879387,10.92059073
4.273540431,-7.558458328,-5.530678272,-6.169641495,11.21530965
4.278307462,-8.042812347,-6.088648319,-5.722100258,11.59745231
4.283073712,-8.39063549,-6.659632683,-5.42139864,12.00604159
4.287840795,-8.51504612,-7.235667706,-5.225094795,12.33541703
4.292608608,-8.472309113,-7.765407562,-5.101106167,12.57389599
4.297375639,-8.392568588,-8.242596626,-5.099416733,12.82106305
4.302141941,-8.324108124,-8.699433327,-5.119728565,13.08367444
4.306908972,-8.31960392,-9.232718468,-4.835196018,13.33559223
4.311676837,-8.513401031,-9.946559906,-4.139091015,13.73113708
4.316443868,-8.832437515,-10.76765537,-3.551303148,14.3724079
4.321210118,-9.161645889,-11.66844749,-3.339198351,15.20653373
4.325977201,-9.516354561,-12.64798641,-3.180430651,16.14458744
4.330745014,-9.94372654,-13.56445885,-2.979342222,17.08065342
4.335512045,-10.48645592,-14.31682777,-2.857712984,17.97508939
4.340278347,-11.11982536,-14.95259476,-2.824878693,18.84703016
4.345045379,-11.74749184,-15.56972218,-2.810765982,19.70584224
4.349813243,-12.23730087,-16.20184517,-2.787965536,20.4944888
4.354580274,-12.58666229,-16.80373192,-2.719203711,21.17034584
4.359346576,-12.84074783,-17.30649376,-2.660295486,21.7135143
4.364113608,-12.99437523,-17.69660187,-2.661904573,22.11581428
4.36888142,-13.01060677,-17.98212051,-2.677004099,22.35618253
4.373648504,-12.8950386,-18.14973831,-2.67791605,22.42467961
4.378414754,-12.69372272,-18.21243668,-2.646695852,22.35684336
4.383181837,-12.44303703,-18.19024658,-2.591882944,22.19081113
4.387949649,-12.14578629,-18.11994743,-2.51241231,21.9582521
4.392716681,-11.84311104,-18.04299545,-2.361799002,21.71144994
4.397482983,-11.59978294,-17.91947365,-2.167887688,21.45605363
4.402250014,-11.39196587,-17.66400528,-2.004027128,21.11421544
4.407017826,-11.16688156,-17.26527023,-1.927112103,20.65193843
4.41178491,-10.94104767,-16.76673889,-1.958440781,20.11630054
4.41655116,-10.67351913,-16.24752235,-2.109959126,19.55397455
4.421318243,-10.32302094,-15.73151588,-2.401129246,18.96867879
4.426086056,-9.886598587,-15.18493748,-2.897185564,18.34995482
4.430853087,-9.385188103,-14.59307194,-3.598889828,17.71980565
4.435619389,-8.854248047,-13.97461796,-4.442463398,17.12959826
4.44038642,-8.327030182,-13.33632088,-5.359274864,16.6108011
4.445154233,-7.815166473,-12.68725586,-6.288105488,16.17354503
4.449921316,-7.378241539,-12.05790997,-7.172683716,15.85178326
4.454687566,-7.068705559,-11.47872734,-7.947237968,15.64884568
4.459454649,-6.840964317,-10.97776699,-8.620118141,15.54402128
4.464222462,-6.656500816,-10.5304184,-9.154387474,15.45967415
4.468989493,-6.43132019,-10.12176037,-9.556095123,15.33397751
4.473755795,-6.124606609,-9.724981308,-9.855079651,15.13963878
4.478522826,-5.843875885,-9.311052322,-9.98998642,14.85417145
4.483290691,-5.663330078,-8.905810356,-9.971313477,14.51943036
4.488057722,-5.594984055,-8.501531601,-9.864494324,14.17350113
4.492824024,-5.650444031,-8.011512756,-9.613202095,13.73045917
4.497591056,-5.821518421,-7.342001915,-9.125524521,13.07938327
4.502358868,-6.125473499,-6.433047295,-8.316846848,12.16862624
4.507125951,-6.595906258,-5.201217175,-7.226465225,11.08063352
4.511892201,-7.271787167,-3.654282331,-6.040978432,10.13538792
4.516659285,-8.045865059,-2.012424946,-5.223400593,9.801515825
4.521427097,-9.070465088,-0.492696762,-4.876127243,10.3098353
4.526194129,-10.30183029,0.791184425,-4.839809418,11.40953265
4.530960431,-10.99270916,1.813790798,-4.916998386,12.17811007
4.535727462,-10.61171341,2.594305515,-4.628648758,11.86436985
4.540495326,-9.123126984,3.170183659,-3.77622509,10.37021631
4.545262358,-6.718709946,3.649610519,-2.443551064,8.026933541
4.550028608,-3.495388746,4.137773991,-0.819907188,5.478244599
4.554795691,0.431596518,4.718173027,0.890672207,4.820863952
4.559563504,4.821397781,5.462041378,2.634354115,7.747231388
4.564330587,9.372421265,6.445498466,4.406274796,12.19844205
4.569096837,13.74101162,7.632719994,6.03755188,16.83822578
4.573863868,17.60539627,8.857357025,7.221808434,20.98945612
4.578631733,20.57126236,9.866300583,7.706951618,24.08148304
4.583398764,22.30812836,10.40625,7.467217922,25.72356844
4.588165066,22.71888733,10.37700462,6.717451572,25.86414936
4.592932097,21.94856834,9.828428268,5.715482712,24.71850313
4.59769991,20.30229759,8.985643387,4.428775311,22.63932696
4.602466993,18.16727638,8.011870384,2.807113647,20.0529271
4.607233243,15.85538864,6.78835392,0.954796791,17.27387434
4.612000326,13.62637234,5.100645542,-0.881822109,14.5764268
4.616768139,11.84493446,2.926470757,-2.024855614,12.3679725
4.621535222,10.73388481,0.394116879,-2.010432243,10.92764609
4.626301472,10.26902008,-2.182193041,-0.780019283,10.52725843
4.631068556,10.2937355,-4.400118351,1.618197441,11.31108284
4.635836368,10.70437431,-6.063005447,4.727891445,13.17940143
4.640603399,11.41641045,-7.157515526,8.062059402,15.70226919
4.645369701,11.94137001,-7.540037155,11.5519619,18.24544605
4.650136733,11.99508762,-7.350344658,15.09171772,20.63176283
4.654904545,11.8939991,-7.14547205,18.44757271,23.08328235
4.659671629,11.71056938,-7.343346119,21.38441658,25.46282467
4.664437931,11.35063267,-7.891829014,23.6754055,27.41610207
4.669204962,10.65579891,-8.422363281,25.24247932,28.66469983
4.673972774,9.366077423,-8.570491791,26.00702286,28.94031744
4.678739858,7.474027157,-8.157799721,25.86114883,28.12845174
4.683506108,5.261218071,-7.280128479,24.74678802,26.32649243
4.688273191,2.954902172,-6.018707275,23.26546669,24.21235685
4.693041004,0.491504192,-4.41950655,22.30163956,22.74064074
4.697808035,-1.762087107,-2.797823906,21.66040611,21.91132042
4.702574337,-3.048030615,-1.493580818,20.78996468,21.06522978
4.707341368,-3.135683775,-0.450656176,19.85433388,20.1054763
4.712109233,-2.231948376,0.541337967,19.01818657,19.15635823
4.716876264,-0.655251622,1.495725155,17.99766922,18.07159776
4.721642566,1.2078197,2.248327971,16.45783997,16.65455804
4.726409597,2.777628422,2.731734514,14.48579979,15.00053295
4.73117741,3.631485462,3.04608202,12.38187885,13.2581004
4.735944493,3.859519005,3.276360989,10.32189941,11.49660975
4.740710743,3.739278793,3.437122107,8.510271072,9.910637113
4.745477826,3.48884058,3.539931774,6.972100258,8.562319053
4.750245639,3.185056686,3.567435026,5.589351654,7.356088001
4.755012722,2.789968967,3.468729258,4.254063606,6.157358741
4.759778972,2.298700571,3.269665241,2.894604683,4.934923644
4.764546004,1.748421788,3.038832188,1.427418709,3.785367087
4.769313868,1.227430224,2.842291832,0.049265862,3.096390631
4.774080899,0.867956519,2.722219229,-0.994983673,3.025527815
4.778847201,0.723440409,2.658480883,-1.780925751,3.280637615
4.783614233,0.740284324,2.616393328,-2.405350685,3.630323242
4.788382045,0.855664611,2.52317071,-2.912127018,3.947028772
4.793149129,1.026057601,2.346721411,-3.306783676,4.18266827
4.797915379,1.203381419,2.12418294,-3.594896317,4.345521778
4.802682462,1.33715415,1.933404446,-3.820367336,4.48567058
4.807450274,1.426878929,1.773073673,-4.005757809,4.607154149
4.812217358,1.450644493,1.632220507,-4.159396172,4.697774978
4.816983608,1.362893939,1.490469933,-4.282522678,4.734868636
4.821750691,1.197291255,1.315400243,-4.383735657,4.730847964
4.826518504,0.982138813,1.098622322,-4.488636971,4.724344347
4.831285535,0.731381834,0.870268166,-4.620576382,4.758362341
4.836051837,0.444322288,0.674786925,-4.762470722,4.830516232
4.840818868,0.102880716,0.499083042,-4.904697418,4.931097757
4.845586733,-0.289659083,0.334642649,-4.997169495,5.016731111
4.850353764,-0.746566951,0.177809864,-5.0162673,5.074634586
4.855120066,-1.264169216,0.014872253,-4.909826756,5.069984592
4.859887097,-1.831497788,-0.149060831,-4.680829525,5.028595064
4.86465491,-2.466197014,-0.294804543,-4.392086983,5.045737359
4.869421993,-3.15728879,-0.403124213,-4.060947895,5.15967823
4.874188243,-3.848952532,-0.438285947,-3.726284504,5.375102452
4.878955326,-4.538825512,-0.41451326,-3.493878841,5.742817046
4.883723139,-5.191677094,-0.355123103,-3.466999054,6.252975764
4.888490222,-5.753564358,-0.282985687,-3.660330772,6.8250718
4.893256472,-6.147331238,-0.237396598,-4.071820736,7.377381825
4.898023556,-6.308417797,-0.214340568,-4.649207592,7.839464791
4.902791368,-6.194723129,-0.187920332,-5.390508175,8.213859451
4.907558399,-5.739079952,-0.155737281,-6.327182293,8.543683548
4.912324701,-4.884440899,-0.045505404,-7.392572403,8.860584652
4.917091733,-3.626288652,0.112481237,-8.374129295,9.126262262
4.921859597,-2.066469908,0.222805142,-8.980370522,9.217754321
4.926626629,-0.361959875,0.205364347,-8.905386925,8.915105481
4.931392931,1.36428237,-0.032186151,-7.850292206,7.96802297
4.936159962,2.902435303,-0.441462636,-5.628796101,6.348414407
4.940927774,4.127119541,-1.00247097,-2.444580078,4.90041177
4.945694858,5.00159359,-1.774684668,1.030288696,5.406194494
4.950461108,5.41674614,-2.790899992,4.375338554,7.501589763
4.955228191,5.38837719,-3.930066347,7.547854424,10.07224586
4.959996004,4.961539268,-4.996865273,10.52616119,12.6643438
4.964763087,4.160617828,-5.867562294,13.25215626,15.07841747
4.969529337,3.078996181,-6.511415482,15.60781097,17.18960478
4.97429642,1.823353052,-6.961251736,17.42030716,18.84809655
4.979064233,0.479607344,-7.243630409,18.56048584,19.92967233
4.983831264,-0.868512869,-7.376115322,18.88331032,20.2913972
4.988597566,-2.187271833,-7.337368011,18.12015724,19.67133005
4.993364597,-3.329833031,-7.227217674,15.95753098,17.83152428
4.998132462,-4.012175083,-7.194412231,12.85652256,15.26916136
5.002899493,-4.181749344,-7.198960781,9.638302803,12.73612754
5.007665795,-4.016412258,-7.044045448,6.551650047,10.42469482
5.012432826,-3.548731804,-6.600911617,3.594073296,8.311612025
5.017200691,-2.731879711,-5.959228516,0.844112396,6.609697194
5.021967722,-1.760174036,-5.22380209,-1.545802116,5.725017475
5.026734024,-0.843440652,-4.373603821,-3.416442871,5.613544727
5.031501056,-0.133080721,-3.417208195,-4.639920712,5.764016528
5.036268868,0.570858717,-2.497500658,-5.568924904,6.129952186
5.041035951,1.494652748,-1.741223693,-6.366622448,6.767549644
5.045802201,2.460633516,-1.132220268,-6.813221931,7.331891511
5.050569285,3.370572567,-0.650452137,-6.892138958,7.699703035
5.055337097,4.205594063,-0.310683012,-6.538484573,7.780445095
5.060104181,4.64594841,-0.108874083,-5.622728825,7.294639788
5.064870431,4.378012657,0.038225174,-4.285975456,6.126829653
5.069637514,3.555439234,0.119164944,-2.860954762,4.565129853
5.074405326,2.430534363,0.001705885,-1.479808807,2.845581541
5.07917241,1.20215106,-0.361152649,-0.358628273,1.305454957
5.08393866,0.096993685,-0.872061253,0.198075295,0.899517885
5.088705743,-0.716578007,-1.359120607,0.201715469,1.549639311
5.093473556,-1.178197384,-1.746213675,-0.154622078,2.112183529
5.098240587,-1.320532322,-2.031720161,-0.709174156,2.524801064
5.103006889,-1.20521152,-2.190704346,-1.273703575,2.80607219
5.10777392,-0.969956398,-2.135867596,-1.970505238,3.063598651
5.112541785,-0.74156332,-1.828070641,-2.923638344,3.526956137
5.117308816,-0.434147596,-1.350625515,-3.955441475,4.202164999
5.122075118,-0.190753222,-0.782287598,-4.876592636,4.942622423
5.126842149,-0.134734869,-0.166187286,-5.598379135,5.602465586
5.131609962,-0.131319046,0.434808254,-6.108316422,6.125180194
5.136377045,-0.240178585,0.945596218,-6.386450768,6.460541105
5.141143347,-0.475664973,1.233668804,-6.604084969,6.735141733
5.145910379,-0.627171874,1.286588192,-6.870409966,7.017918981
5.150678191,-0.589313388,1.220863819,-7.067326546,7.196172819
5.155445274,-0.454763651,1.131608963,-7.182374001,7.285179827
5.160211524,-0.320544124,1.061347961,-7.24627018,7.330596125
5.164978608,-0.237799287,1.016654015,-7.251461983,7.326242882
5.16974642,-0.180587173,0.963728428,-7.197787285,7.264263625
5.174513504,-0.060206175,0.857041359,-7.078071594,7.130023995
5.179279754,0.222154617,0.64397049,-6.882862091,6.916490528
5.184046837,0.658094645,0.276767254,-6.614758492,6.653173572
5.188814649,1.160727739,-0.222706556,-6.293258667,6.403279765
5.193581733,1.610288143,-0.782382488,-5.885363102,6.15163792
5.198347983,2.038143635,-1.225558281,-5.360403061,5.864293952
5.203115066,2.483720303,-1.490654707,-4.64018774,5.470124337
5.207882879,2.769402027,-1.674201965,-3.60854578,4.84707566
5.21264991,2.822868109,-1.832395792,-2.369345188,4.115829846
5.217416212,2.724136114,-1.985758901,-1.16958046,3.56820325
5.222183243,2.540403366,-2.147438049,-0.179349899,3.331261897
5.226951108,2.309472799,-2.299532652,0.572722435,3.309006802
5.231718139,2.053853512,-2.421826124,1.067913055,3.350223025
5.236484441,1.741939783,-2.47228837,1.295045853,3.289940388
5.241251472,1.369613647,-2.434845686,1.219304085,3.048117043
5.246019337,0.950850964,-2.32874465,0.837112427,2.651023654
5.250786368,0.472869158,-2.177591801,0.204650879,2.237720553
5.25555267,-0.031199694,-2.047822237,-0.550460815,2.120744314
5.260319701,-0.470637798,-1.943362355,-1.38703537,2.433520967
5.265087566,-0.804898858,-1.841730237,-2.347743034,3.090587289
5.269854597,-1.067316175,-1.732437849,-3.355756283,3.924487858
5.274620899,-1.260017037,-1.576202512,-4.308132172,4.757316481
5.279387931,-1.341808319,-1.372040033,-5.204964638,5.547485944
5.284155795,-1.333426952,-1.128600836,-6.02248621,6.270734202
5.288922826,-1.274438858,-0.876180649,-6.686753273,6.863275914
5.293689129,-1.158913851,-0.640524626,-7.219445229,7.339873467
5.29845616,-1.001518607,-0.406936884,-7.589712143,7.666313818
5.303223972,-0.821296334,-0.192057133,-7.752359867,7.79810856
5.307991056,-0.603529811,-0.012747288,-7.738711834,7.762220789
5.312757358,-0.349799275,0.121019602,-7.558512211,7.567569763
5.317524389,-0.06598711,0.208641768,-7.178487301,7.181821887
5.322292201,0.227914095,0.246839762,-6.653858185,6.662334684
5.327059285,0.514158011,0.232315064,-6.063667297,6.089859591
5.331825535,0.753297329,0.180977345,-5.443829536,5.498680722
5.336592618,0.915377379,0.130236387,-4.784787655,4.873301772
5.341360431,1.030413866,0.076862574,-4.026880264,4.157333912
5.346127514,1.1189816,-0.02285099,-3.28042078,3.466093259
5.350893764,1.177500963,-0.221556425,-2.70114851,2.954961766
5.355660847,1.1784091,-0.490332604,-2.301204681,2.631466711
5.36042866,1.137428999,-0.771451831,-1.999584198,2.426359334
5.365195743,1.096295834,-1.007162929,-1.729694366,2.282122766
5.369961993,1.022064447,-1.194541931,-1.556460381,2.212264694
5.374729076,0.88360405,-1.361335039,-1.530292034,2.2306463
5.379496889,0.687852621,-1.46827507,-1.608201504,2.283699846
5.384263972,0.505929232,-1.509790659,-1.708815575,2.335697517
5.389030222,0.391690731,-1.533279061,-1.748224258,2.358103977
5.393797306,0.315457344,-1.540936112,-1.649768829,2.279415414
5.398565118,0.271713734,-1.542829394,-1.353512287,2.070301042
5.403332201,0.276727438,-1.549660325,-0.849727631,1.78887178
5.408098451,0.309151888,-1.519941568,-0.104910851,1.5546072
5.412865535,0.393511295,-1.44596684,0.828228951,1.712201634
5.417633347,0.52520752,-1.369896889,1.80382061,2.325129936
5.422400379,0.656168461,-1.312186122,2.731287003,3.100373874
5.427166681,0.788614273,-1.259230256,3.579808235,3.875899936
5.431933764,0.936358929,-1.144508243,4.299534798,4.546720427
5.436701576,1.065984964,-0.939316392,4.871466637,5.074428679
5.441468608,1.151778936,-0.681362152,5.360030174,5.524560849
5.44623491,1.263485432,-0.419861913,5.712398529,5.865507345
5.451001993,1.589251518,-0.136758566,5.821105957,6.035701936
5.455769806,2.195771933,0.236914158,5.629407883,6.047129551
5.460536837,2.902030706,0.736793041,5.236424446,6.03198037
5.465303139,3.507218361,1.391376972,4.82511425,6.125213305
5.470070222,3.953784227,2.197724342,4.556970596,6.420933189
5.474838035,4.346428871,3.075347424,4.59860611,7.035366647
5.479605066,4.907449722,3.866162062,5.119198799,8.07690957
5.484371368,5.78578949,4.456400394,6.280921936,9.632489027
5.489138451,6.942637444,4.860713959,8.097744942,11.72178434
5.493906264,8.17501545,5.100414276,10.46450138,14.2250094
5.498673295,9.444070816,5.189198017,13.24293137,17.07318016
5.503439597,10.89050007,5.171882629,16.3374939,20.30431157
5.508206629,12.68616104,5.131529331,19.84431839,24.10535724
5.512974493,14.82201099,5.144240379,23.93945694,28.62259278
5.517741524,16.96623611,5.155798912,28.28598595,33.38461369
5.522507826,18.63763046,5.106730938,31.97394943,37.36005102
5.52727491,19.39334488,4.956144333,34.40441895,39.80363344
5.532042722,19.07714462,4.770584106,35.4260788,40.51793404
5.536809754,17.90007019,4.73511982,34.86484146,39.47646188
5.541576056,16.18162155,4.898845673,32.66383743,36.78001959
5.546343139,14.22195816,5.176242352,29.18699074,32.87762168
5.551110951,12.35304451,5.468811989,24.98649025,28.40475855
5.555877983,10.71594429,5.779939651,20.37489319,23.73553111
5.560644285,9.327756882,6.132514954,15.93819237,19.45869379
5.565411368,8.232242584,6.471343994,12.18857956,16.06890111
5.570179181,7.398477077,6.821305752,9.048445702,13.53299837
5.574946212,6.771857738,7.199254036,6.505233765,11.83238701
5.579712514,6.272219658,7.542615414,4.55565834,10.81599786
5.584479597,5.915358543,7.809819698,3.005068302,10.24769174
5.58924741,5.659403801,8.002278328,1.623134613,9.934781114
5.594014441,5.336346626,8.104831696,0.360723496,9.71056196
5.598780743,4.946390629,8.071403503,-0.662276268,9.489622997
5.603547826,4.490167141,7.820717812,-1.487104416,9.13984177
5.608315639,3.865537643,7.257908344,-2.200850487,8.512541199
5.61308267,3.02583313,6.394239902,-2.800277233,7.60812215
5.617848972,2.044157028,5.293774605,-3.275206089,6.552068563
5.622616056,1.008270264,4.085474014,-3.68282938,5.592042479
5.627383868,-0.01561594,2.907879591,-4.080357075,5.010521074
5.632150899,-0.959073782,1.854004145,-4.567897797,5.022234977
5.636917201,-1.727081537,0.971263886,-5.161883831,5.529123697
5.641684285,-2.245921373,0.285373211,-5.814211845,6.239443891
5.646452097,-2.520541906,-0.173680306,-6.510187149,6.983253759
5.651219181,-2.637206554,-0.488324881,-7.160858154,7.646646919
5.655985431,-2.782291651,-0.769365311,-7.687003136,8.211156253
5.660752514,-3.055981636,-1.057873249,-8.07872963,8.701953344
5.665520326,-3.460319519,-1.34189105,-8.366812706,9.15303434
5.67028741,-3.989429235,-1.58258152,-8.568192482,9.583007477
5.67505366,-4.505813122,-1.791301727,-8.721318245,9.978602392
5.679820743,-4.810368538,-1.955594301,-8.878580093,10.28558112
5.684588556,-5.089506149,-2.184302092,-9.080468178,10.63621882
5.689355639,-5.553506374,-2.647416353,-9.429982185,11.25943206
5.694121889,-6.081689835,-3.36411047,-9.769872665,11.98977074
5.698888972,-6.57473278,-4.203104019,-9.95765686,12.65101279
5.703656785,-6.999856949,-5.026163578,-9.985433578,13.18973849
5.708423868,-7.374387741,-5.76455307,-9.881576538,13.61092288
5.713190118,-7.763694763,-6.414474487,-9.688723564,13.97468438
5.717957201,-8.171645164,-6.977073669,-9.463490486,14.31827482
5.722725014,-8.571443558,-7.448796272,-9.288621902,14.67081141
5.727492097,-9.013063431,-7.830995083,-9.141534805,15.03753487
5.732258347,-9.498918533,-8.139285088,-9.00213623,15.41154995
5.737025431,-9.85675621,-8.437446594,-8.831194878,15.69509959
5.741793243,-9.964436531,-8.717815399,-8.637430191,15.80808341
5.746560326,-9.853096008,-8.932095528,-8.525278091,15.7970313
5.751326576,-9.649499893,-9.05374527,-8.477043152,15.71443324
5.75609366,-9.449139595,-9.077962875,-8.388900757,15.55857657
5.760861472,-9.225455284,-9.04546833,-8.264719963,15.33737652
5.765628556,-8.925492287,-9.001914978,-8.103490829,15.04544614
5.770394806,-8.575339317,-8.949965477,-7.896827221,14.69687744
5.775161889,-8.208295822,-8.90922451,-7.652695179,14.32878729
5.779929754,-7.840950012,-8.892040253,-7.388511658,13.96921549
5.784696785,-7.494895935,-8.896438599,-7.109292507,13.63312601
5.789463087,-7.189481735,-8.939577103,-6.834056854,13.35324004
5.794230118,-6.96807003,-9.002824783,-6.500055313,13.10936967
5.798997983,-6.84284687,-9.069957733,-6.061225414,12.87738871
5.803765014,-6.809454918,-9.167775154,-5.5573349,12.70042317
5.808531316,-6.84927845,-9.296760559,-5.042212963,12.60024935
5.813298347,-6.929533005,-9.426218987,-4.552774906,12.55387555
5.818066212,-7.029304504,-9.53750515,-4.097187519,12.53642979
5.822833243,-7.115725517,-9.604763031,-3.690866709,12.51029654
5.827599545,-7.151214123,-9.638044357,-3.377854824,12.4676247
5.832366576,-7.114868164,-9.649744987,-3.202312946,12.40942124
5.837134441,-7.016989708,-9.630767822,-3.148435593,12.32487242
5.841901472,-6.891723156,-9.567201614,-3.128863335,12.19905654
5.846667774,-6.746771812,-9.485708237,-3.128343821,12.05338648
5.851434806,-6.61619854,-9.410411835,-3.167649031,11.93163586
5.85620267,-6.483613968,-9.320029259,-3.224603415,11.8024685
5.860969701,-6.282386303,-9.229077339,-3.329856396,11.65041586
5.865736004,-5.991108894,-9.116153717,-3.49758935,11.45560019
5.870503035,-5.614571571,-8.945475578,-3.689551353,11.18739185
5.875270899,-5.195534706,-8.714799881,-3.874901295,10.86076323
5.880037931,-4.752628803,-8.416954994,-4.059044838,10.48372343
5.884804233,-4.304077148,-8.0782547,-4.228537083,10.08284707
5.889571316,-3.870235443,-7.729681492,-4.351099014,9.677745656
5.894339129,-3.430733919,-7.404490471,-4.440047264,9.290340901
5.899106212,-3.039576292,-7.126159191,-4.487205505,8.952998498
5.903872462,-2.779454708,-6.891842365,-4.426907539,8.649876879
5.908639545,-2.563465595,-6.720026493,-4.3752985,8.418631058
5.913407358,-2.393268108,-6.586149693,-4.331130981,8.237948506
5.918174441,-2.377913952,-6.389379025,-4.068129539,7.939037538
5.922940691,-2.528321505,-6.055456161,-3.536880493,7.454561193
5.927707774,-2.898661613,-5.637055397,-2.764093876,6.915117328
5.932475587,-3.546258688,-5.234696388,-1.799555302,6.573917876
5.93724267,-4.506119251,-4.927103996,-0.866627216,6.732941945
5.942008972,-5.791203976,-4.689661026,-0.262032032,7.456515595
5.946776004,-7.251040936,-4.511742592,-0.085909367,8.540538407
5.951543816,-8.668733597,-4.458946228,-0.070618629,9.748545052
5.956310899,-9.793190002,-4.518116474,0.062561035,10.78535399
5.961077201,-10.28114796,-4.580785275,0.299704075,11.25945912
5.965844233,-10.09968758,-4.423605919,0.37513876,11.03234823
5.970612097,-9.096993446,-3.890604734,0.118655682,9.89475488
5.975379129,-6.993219852,-3.070031643,-0.410494328,7.648445841
5.980145431,-3.920804977,-2.065032482,-0.858872891,4.513837997
5.984912462,-0.132218123,-0.864489079,-0.770702839,1.165678285
5.989680326,4.097858906,0.553570747,0.022691727,4.135142452
5.994447358,8.419290543,2.149915695,1.635544777,8.842035821
5.99921366,12.23803997,3.710143089,4.017341137,13.40424611
6.003980743,14.96133232,4.835983276,6.788117409,17.12620031
6.008748556,16.37018776,5.11877203,9.453457832,19.58450253
6.013515639,16.52565956,4.451291561,11.5666256,20.65667563
6.018281889,15.5061264,3.176156044,12.87151241,20.4010724
6.023048972,13.5350132,1.79738903,13.46789265,19.1784077
6.027816785,11.1389761,0.68981266,13.68257523,17.65688236
6.032583868,8.863248825,-0.14271307,13.64612007,16.27249642
6.037350118,7.030847549,-0.873773098,13.36494064,15.12672916
6.042117201,5.777365685,-1.529457092,13.08468056,14.3849247
6.046885014,5.204539776,-1.984437466,13.15630245,14.28683032
6.051652097,5.27864933,-2.074777603,13.69460678,14.82265481
6.056418399,5.808594704,-1.717489958,14.6191206,15.82429244
6.061185431,6.602817535,-0.953089237,15.73800468,17.09357686
6.065953295,7.430040359,0.032008171,16.69740295,18.27593471
6.070720326,8.103178978,1.015788078,17.24204254,19.07829568
6.075486629,8.554067612,1.884636641,17.35323906,19.43859135
6.08025366,8.707183838,2.599878073,17.14318466,19.40265953
6.085021524,8.532028198,3.152177811,16.65896225,18.98032543
6.089788556,8.089076042,3.563736916,15.86343861,18.15990243
6.094554858,7.498092175,3.878928661,14.80292225,17.04095012
6.099321941,6.835938454,4.140311241,13.53040886,15.71445817
6.104089754,6.134017944,4.347737312,12.12972641,14.27092354
6.108856837,5.447475433,4.496487617,10.63197041,12.76448919
6.113623087,4.822199821,4.615626335,9.089529991,11.27728571
6.11839017,4.252032757,4.691165924,7.647842407,9.928560509
6.123157983,3.702627659,4.721063614,6.354081154,8.739121268
6.127925066,3.166491985,4.700696945,5.209921837,7.698474447
6.132691316,2.679436207,4.632741928,4.202690125,6.804724862
6.137458399,2.282181263,4.553189278,3.295907021,6.066538305
6.142226212,1.912474871,4.481229782,2.450867653,5.453964864
6.146993295,1.524907827,4.40751791,1.657640457,4.949679777
6.151759597,1.107437849,4.315621376,0.913584709,4.548147257
6.156526629,0.677059174,4.21330595,0.175337791,4.27096002
6.161294493,0.280098677,4.109061241,-0.598308563,4.161828047
6.166061524,-0.019683838,4.016713142,-1.424890041,4.26200464
6.170827826,-0.179525852,3.952904224,-2.288709641,4.571200407
6.175594858,-0.240464926,3.919885159,-3.166917801,5.045066045
6.180362722,-0.222522497,3.898169994,-4.036525726,5.615940305
6.185129754,-0.182115555,3.882297039,-4.836113453,6.204304127
6.189896056,-0.180502892,3.868921995,-5.523388386,6.746032757
6.194663139,-0.209921122,3.859182358,-6.060724258,7.188166239
6.199430951,-0.256010294,3.839332342,-6.46284914,7.521597777
6.204198035,-0.3406353,3.775966167,-6.701189041,7.699343314
6.208964285,-0.478582621,3.656816244,-6.701611519,7.649375355
6.213731368,-0.627116442,3.50008893,-6.466444492,7.379620717
6.218499181,-0.814879298,3.302131891,-6.000424862,6.89733295
6.223266264,-1.092467546,3.066489697,-5.427703857,6.329045233
6.228032566,-1.410357833,2.818301201,-4.915229797,5.838785391
6.232799597,-1.700117588,2.587777138,-4.488706589,5.453024589
6.237567462,-1.934283972,2.402887106,-4.145091534,5.166924109
6.242334493,-2.128345013,2.260766983,-3.838414192,4.937037913
6.247100795,-2.280493975,2.149212837,-3.554047108,4.738250672
6.251867826,-2.355117559,2.070685625,-3.301467419,4.553460749
6.256635691,-2.330524683,2.013342857,-3.030502319,4.320745198
6.261402722,-2.244354963,1.953316927,-2.715065956,4.027922463
6.266169024,-2.119649887,1.885997057,-2.36027956,3.690639531
6.270936108,-1.986293197,1.818650007,-1.930687428,3.313669032
6.27570392,-1.907734275,1.734491825,-1.419507027,2.943282547
6.280471004,-1.921567559,1.631298304,-0.939427376,2.689996252
6.285237254,-2.075072765,1.511937618,-0.545660019,2.624809936
6.290004337,-2.374779701,1.405585051,-0.233595848,2.769443082
6.294772149,-2.72227931,1.317857742,-0.034548759,3.024689619
6.299539233,-2.988742113,1.221120119,-0.013178825,3.228604566
6.304305535,-3.086931229,1.123662949,-0.221881867,3.292566536
6.309072566,-3.042866707,1.060278893,-0.653035164,3.287808396
6.313840431,-2.942511559,1.030053139,-1.212947845,3.345239336
6.318607462,-2.776281834,1.015240431,-1.805542469,3.463876089
6.323373764,-2.460918903,0.99324441,-2.387253761,3.569542944
6.328140847,-1.886604548,0.984149456,-2.852318287,3.558587709
6.33290866,-0.988055468,1.033433199,-2.946802616,3.275344782
6.337675743,0.162885428,1.115930557,-2.472137928,2.71722259
6.342441993,1.400530815,1.162606478,-1.409607887,2.302202159
6.347209076,2.596065044,1.144397497,0.12071991,2.839678264
6.351976889,3.657124043,1.051384211,1.867147446,4.23865599
6.356743972,4.498843193,0.864524603,3.611383438,5.833445226
6.361510274,5.08671236,0.572382689,5.252249718,7.334056973
6.366277306,5.376159668,0.200201273,6.66697216,8.566895068
6.37104517,5.321988583,-0.233310938,7.711361885,9.372464915
6.375812201,5.03418541,-0.747207403,8.329771042,9.761476694
6.380578504,4.565640926,-1.266636372,8.583347321,9.804248874
6.385345535,3.830185652,-1.675427914,8.513892174,9.484921759
6.390113399,2.867478848,-1.948030114,8.072647095,8.785493007
6.394880431,1.84070015,-2.161506176,7.266254425,7.801201148
6.399646733,0.914027214,-2.364336014,6.154665947,6.656233428
6.404413816,0.155044556,-2.495169163,4.781533241,5.395643437
6.409181629,-0.447968006,-2.52169776,3.274441719,4.157114804
6.413948712,-0.897416592,-2.459673882,1.772989273,3.162094734
6.418714962,-1.209738016,-2.30354023,0.38067627,2.629577548
6.423482045,-1.400996685,-2.060028076,-0.832654953,2.62675116
6.428249858,-1.453927755,-1.7554003,-1.895082951,2.964232704
6.433016941,-1.355878592,-1.406934023,-2.784339428,3.401531442
6.437783243,-1.170712948,-1.046452522,-3.454244137,3.794395109
6.442550274,-0.964594603,-0.717889786,-3.899310589,4.080494034
6.447318139,-0.782132149,-0.422404766,-4.140292168,4.234639975
6.45208517,-0.634175777,-0.175797463,-4.166889191,4.21853638
6.456851472,-0.531281471,0.04195857,-3.985693932,4.02116608
6.461618556,-0.493160486,0.227077007,-3.677653313,3.717513298
6.466386368,-0.50333786,0.363846302,-3.309405327,3.367179346
6.471153451,-0.542681932,0.463324308,-2.940592289,3.025930618
6.475919701,-0.594314337,0.510634184,-2.59269762,2.708512092
6.480686785,-0.641043186,0.507914782,-2.292149544,2.43369335
6.485454597,-0.665629864,0.462395668,-2.03913641,2.194299471
6.490221681,-0.706334114,0.390932083,-1.862373829,2.029820695
6.494987983,-0.816088438,0.305866718,-1.77135849,1.974149358
6.499755014,-0.983082056,0.219551325,-1.727790833,1.999978568
6.504522879,-1.199973822,0.168267727,-1.655271053,2.051383304
6.50928991,-1.425875902,0.190699101,-1.570783615,2.129988122
6.514056212,-1.598532438,0.29439044,-1.527112007,2.230256212
6.518823295,-1.679920673,0.441633701,-1.52434063,2.311014528
6.523591108,-1.68248558,0.582814455,-1.586386681,2.38475431
6.528358191,-1.64024353,0.706668615,-1.682124138,2.453430453
6.533124493,-1.544244528,0.835379124,-1.787576675,2.505589714
6.537891524,-1.399507284,0.976741791,-1.883699894,2.541843908
6.542659389,-1.234264374,1.129022121,-1.899121761,2.530763316
6.54742642,-1.049974918,1.244968653,-1.796170712,2.424587285
6.552192722,-0.816704273,1.329907417,-1.577970028,2.219380323
6.556959754,-0.533168316,1.412900686,-1.307412148,1.99746923
6.561727618,-0.214891672,1.489381552,-1.035321236,1.826561222
6.566494701,0.108373165,1.5402174,-0.697667122,1.694329895
6.571260951,0.3663342,1.553240299,-0.240046501,1.613808692
6.576028035,0.546133995,1.513830662,0.279513359,1.633423806
6.580795847,0.642213345,1.426685333,0.805319786,1.759661609
6.585562931,0.64897728,1.296342611,1.300931931,1.947844851
6.590329233,0.582042456,1.120261908,1.725265503,2.137826283
6.595096264,0.449230671,0.917618513,2.02312851,2.266468817
6.599864129,0.241245508,0.717139244,2.204139709,2.330390514
6.60463116,-0.022727489,0.53315115,2.268470764,2.330391876
6.609397462,-0.269062996,0.351310015,2.230871201,2.274335054
6.614164545,-0.484121323,0.173822403,2.111001015,2.172766202
6.618932358,-0.688123703,0.019555807,1.916727066,2.036599938
6.623699441,-0.870190382,-0.100034714,1.665543556,1.881827193
6.628465691,-0.981334686,-0.178287029,1.389307022,1.710256716
6.633232774,-1.005975008,-0.206425667,1.131807327,1.528262117
6.638000587,-0.947457552,-0.199628592,0.922323227,1.337238768
6.64276767,-0.844878435,-0.165952921,0.725495338,1.125923367
6.647533972,-0.741681337,-0.117987633,0.51054287,0.908111397
6.652301004,-0.662155867,-0.084918976,0.25624752,0.715069518
6.657068868,-0.611301422,-0.090870619,-0.044368744,0.619609138
6.661835951,-0.606099129,-0.135924578,-0.37916851,0.727736494
6.666602201,-0.63718009,-0.200834751,-0.752844811,1.006532847
6.671369285,-0.637694836,-0.268642187,-1.141464233,1.334827301
6.676137097,-0.619853258,-0.334260941,-1.552215576,1.704500406
6.680904181,-0.617230654,-0.397301197,-1.980400085,2.112062125
6.685670483,-0.653615236,-0.471858263,-2.378302097,2.511211652
6.690437514,-0.709673166,-0.564664364,-2.741369247,2.887488043
6.695205379,-0.75424099,-0.646670818,-3.076947689,3.233368166
6.69997241,-0.765839338,-0.698461771,-3.368422985,3.524291722
6.704738712,-0.723118305,-0.722105742,-3.656578064,3.796695922
6.709505795,-0.623788357,-0.698339224,-3.912774563,4.023256686
6.714273608,-0.465602875,-0.634371042,-4.091613293,4.166594772
6.719040691,-0.275164604,-0.566022635,-4.226637363,4.273237717
6.723806993,-0.074513435,-0.524338245,-4.329738617,4.362008636
6.728574024,0.157233238,-0.506906986,-4.386434078,4.418425161
6.733341889,0.421689034,-0.537435055,-4.394248486,4.447030226
6.73810892,0.751552105,-0.64456749,-4.33152914,4.443246843
6.742875222,1.144082546,-0.854749918,-4.095414639,4.337273724
6.747642306,1.518425465,-1.185281396,-3.528259277,4.019840968
6.752410118,1.763745785,-1.594311118,-2.518106937,3.463161804
6.757177201,1.85134387,-2.030721664,-1.082363605,2.953441311
6.761943451,1.774097681,-2.446200848,0.615868568,3.083928544
6.766710535,1.58915472,-2.847408772,2.358797073,4.024558742
6.771478399,1.324464798,-3.243209362,3.940982819,5.272946002
6.776245431,0.947830439,-3.608557224,5.248135567,6.439176555
6.781011733,0.509971619,-3.939244986,6.159004211,7.32878264
6.785778816,0.167582274,-4.168130875,6.430768013,7.665257728
6.790546629,0.079984903,-4.215169907,5.907154083,7.257308336
6.795313712,0.243160725,-4.039993286,4.69955349,6.202134785
6.800079962,0.526212215,-3.682682991,3.028757095,4.79712652
6.804847045,0.867558718,-3.189876795,1.088605881,3.480378551
6.809614858,1.430095673,-2.515046835,-0.896271706,3.028850803
6.814381941,2.275762558,-1.62407732,-2.687082767,3.87777464
6.819148243,3.24674201,-0.529465199,-3.989951134,5.171206545
6.823915274,4.178729534,0.692676067,-4.417458534,6.120091548
6.828683139,4.813593388,1.845239639,-3.711205482,6.352057679
6.833450222,5.081029415,2.717980862,-1.72058773,6.013709506
6.838216472,5.18152523,3.126367569,1.472734451,6.228268191
6.842983556,5.392424583,3.08677578,5.280287743,8.154009213
6.847751368,5.711000443,2.869301319,9.118936539,11.13568227
6.852518451,5.877449989,2.663182259,12.85726357,14.38562423
6.857284754,5.766366005,2.572510719,16.26976585,17.45205057
6.862051785,5.718751907,2.580631733,18.87423706,19.88971111
6.866819649,6.056075573,2.617387295,20.33596802,21.37939108
6.871586733,6.53441143,2.711761475,20.64021301,21.8190416
6.876352983,6.951272011,2.90064621,19.80081558,21.18504729
6.881120066,7.32482481,3.238396645,17.80780411,19.52583311
6.885887879,7.578962326,3.831984997,15.04838562,17.27942964
6.890654962,7.684488773,4.653914928,12.03194332,15.01592328
6.895421264,7.711991787,5.539584637,9.019552231,13.09634062
6.900188295,7.715692997,6.39768219,6.267849922,11.82151422
6.90495616,7.831726074,7.116683006,4.038673401,11.32669383
6.909723243,7.998208523,7.622027874,2.477329254,11.32271207
6.914489493,8.019159317,7.917359352,1.576956749,11.37885266
6.919256576,7.733867168,7.986607552,1.164445877,11.17830648
6.924024389,7.091278553,7.847038746,1.086605072,10.63216625
6.928791472,6.23835659,7.563632965,1.229060173,9.881104467
6.933557774,5.347621441,7.141657829,1.377258301,9.027578416
6.938324806,4.473859787,6.615030289,1.405384064,8.108585048
6.94309267,3.647753,6.029774189,1.318946838,7.16965128
6.947859754,2.87361002,5.41762352,1.139821053,6.237585365
6.952626004,2.138994932,4.805602551,0.853608131,5.32895506
6.957393087,1.489161253,4.197098255,0.471656799,4.478358532
6.962160899,0.916837931,3.619695187,-0.007086754,3.734010613
6.966927983,0.426915884,3.081969261,-0.588787079,3.166616794
6.971694285,0.041484118,2.559240341,-1.205884457,2.829415024
6.976461316,-0.259846211,2.03891325,-1.786438942,2.723242807
6.981229181,-0.494552612,1.537106514,-2.258785725,2.776579131
6.985996264,-0.679652214,1.067364454,-2.592064857,2.884440021
6.990762514,-0.876903534,0.631346703,-2.839372635,3.038024922
6.995529597,-1.066099882,0.245100975,-3.003677845,3.196673903
7.00029741,-1.23201108,-0.075311661,-3.111768723,3.347630166
7.005064493,-1.388148785,-0.332924366,-3.252538681,3.552014014
7.009830795,-1.519249439,-0.516354084,-3.466957092,3.820279031
7.014597879,-1.607843995,-0.618604899,-3.752953053,4.129466182
7.019365691,-1.631983995,-0.668675184,-4.081994057,4.446703694
7.024132774,-1.64870739,-0.685740233,-4.466257572,4.80998258
7.028899024,-1.69849515,-0.667303562,-4.905882359,5.234296661
7.033666108,-1.747861505,-0.62275672,-5.386585236,5.697205128
7.038433972,-1.785092235,-0.580586672,-5.920315266,6.210778374
7.043201004,-1.812890172,-0.550015688,-6.463993073,6.735895967
7.047967306,-1.80526948,-0.504468918,-6.974532127,7.222020851
7.052734389,-1.743134141,-0.43179822,-7.430472374,7.644402268
7.057502201,-1.731688619,-0.312982798,-7.755285263,7.952430648
7.062269285,-1.842845559,-0.215079069,-7.960888386,8.174232848
7.067035587,-2.062197208,-0.22644949,-8.142932892,8.403052587
7.071802618,-2.394349575,-0.351498842,-8.303759575,8.649212935
7.076570483,-2.786456108,-0.575309515,-8.426640511,8.894019843
7.081337514,-3.154434204,-0.859128714,-8.497299194,9.104540125
7.086103816,-3.502676249,-1.144929886,-8.513531685,9.276843595
7.090870899,-3.864168167,-1.408363342,-8.508997917,9.450837449
7.095638712,-4.209331036,-1.625098228,-8.476816177,9.602907087
7.100405795,-4.475204945,-1.81875515,-8.4100914,9.698709551
7.105172097,-4.673384666,-2.01050806,-8.347261429,9.775450898
7.109939129,-4.844137192,-2.192877293,-8.274110794,9.835409772
7.114706993,-4.984574318,-2.334417343,-8.190864563,9.868421746
7.119474024,-5.0843997,-2.413197279,-8.095529556,9.859626779
7.124240326,-5.10206604,-2.450547695,-7.988558769,9.790471546
7.12900741,-5.024977684,-2.448572874,-7.899085045,9.676851471
7.133775222,-4.854828835,-2.416591644,-7.839532852,9.532447405
7.138542306,-4.600617409,-2.373440742,-7.82948637,9.38614715
7.143308608,-4.319196701,-2.333095789,-7.888557911,9.291293883
7.148075639,-4.072368145,-2.297518015,-7.952593803,9.225319482
7.152843504,-3.86441493,-2.266274929,-8.014976501,9.182023368
7.157610587,-3.702106476,-2.265140057,-8.083481789,9.17491851
7.162376837,-3.563528299,-2.286625862,-8.144258499,9.179125137
7.16714392,-3.431519032,-2.318572521,-8.188261032,9.175986058
7.171911785,-3.327486277,-2.380001068,-8.163222313,9.130978509
7.176678816,-3.253774166,-2.44686079,-8.117318153,9.081025716
7.181445118,-3.189049006,-2.509631157,-8.079299927,9.04120398
7.186212201,-3.114422798,-2.575660706,-8.037127495,8.996058904
7.190980014,-3.015958548,-2.618985653,-7.973771572,8.918302804
7.195747097,-2.908395767,-2.640002728,-7.836328506,8.76563887
7.200513399,-2.845011234,-2.651016951,-7.67219305,8.601425812
7.205280431,-2.807137966,-2.666718483,-7.504836082,8.444760248
7.210048295,-2.771334648,-2.711101055,-7.336316586,8.297704846
7.214815326,-2.735476971,-2.793725967,-7.19037962,8.184699024
7.219581629,-2.682919025,-2.878653288,-7.050238132,8.074066941
7.224348712,-2.563675165,-2.927558899,-6.915812492,7.935458014
7.229116524,-2.414037466,-2.971469402,-6.767827511,7.775647659
7.233883608,-2.291646004,-3.003100395,-6.548867702,7.560285813
7.23864991,-2.148466825,-3.008243561,-6.218419552,7.234236708
7.243416941,-1.97230649,-3.008597612,-5.783879757,6.81138147
7.248184806,-1.813169241,-3.016227961,-5.25982523,6.328583985
7.252951889,-1.694509029,-3.036065817,-4.651331425,5.807231743
7.257718191,-1.596364498,-3.039531708,-3.923065901,5.213211935
7.262485222,-1.501509428,-2.981119633,-3.142511845,4.584428593
7.267253087,-1.407397747,-2.870207548,-2.448719501,4.026796119
7.272020118,-1.344906092,-2.708735704,-1.83973074,3.539863091
7.27678642,-1.262913704,-2.396184444,-1.184635162,2.956351025
7.281553504,-1.131812096,-1.889923573,-0.402612209,2.239398652
7.286321316,-1.025215149,-1.274219513,0.374633312,1.677811547
7.291088399,-1.144326687,-0.671028614,1.073242188,1.706344561
7.295854701,-1.670403242,-0.184262276,1.449892521,2.219546778
7.300621733,-2.520581484,0.174631596,1.206176281,2.799765782
7.305389597,-3.388212204,0.455012322,0.285034657,3.430490185
7.310156681,-3.948405981,0.704153061,-1.198592663,4.185972491
7.314922931,-4.024724483,1.038157463,-2.869143963,5.050560876
7.319690014,-3.38985157,1.593324661,-4.327091694,5.723067331
7.324457826,-1.846347809,2.386865139,-5.203640938,6.015314159
7.32922491,0.558517933,3.266552448,-5.050557137,6.040731294
7.333991212,3.488630295,3.999827862,-3.436937571,6.323108739
7.338758295,6.541732311,4.355842113,-0.248837471,7.863176345
7.343526108,9.481044769,4.220421314,4.229588985,11.20676532
7.348293191,12.13545799,3.69934845,9.488931656,15.842801
7.353059493,14.28804493,2.996547699,14.97702789,20.91503982
7.357826524,15.43297768,2.335623264,20.11648941,25.4618358
7.362594389,15.38888073,1.785791397,24.39246178,28.89634739
7.367361472,14.43424034,1.263005257,27.29504013,30.90245447
7.372127722,12.83582497,0.748061657,28.36226273,31.14058358
7.376894806,10.86000156,0.295597553,27.49664688,29.5650571
7.38166267,8.943333626,-0.048539639,24.91243744,26.46913507
7.386429701,7.397499084,-0.198585033,21.38622665,22.63035835
7.391196004,6.185665607,-0.058369637,17.91175079,18.9498465
7.395963087,5.430624008,0.31580019,15.03693581,15.99064868
7.400730899,5.19404459,0.768154621,12.88137054,13.9103511
7.405497983,5.265345573,1.168308258,11.38567162,12.59850492
7.410264285,5.424706459,1.47113657,10.38347244,11.80712425
7.415031368,5.512290001,1.679245472,9.737288475,11.31459205
7.419799181,5.393802643,1.75950861,9.295734406,10.8903469
7.424566264,4.970215797,1.648023129,8.843056679,10.27709476
7.429332566,4.285464287,1.407845497,8.302426338,9.448678013
7.434099597,3.493584394,1.140624046,7.682620049,8.516384558
7.438867462,2.703615904,0.869236946,6.986999512,7.542100105
7.443634493,1.966441393,0.626135349,6.164042473,6.500335132
7.448400795,1.325694323,0.431548119,5.267429352,5.448808236
7.453167879,0.794107914,0.279465675,4.395922661,4.475806573
7.457935691,0.351097822,0.185393572,3.566688538,3.58871949
7.462702774,-0.006931305,0.138655424,2.765574455,2.769056778
7.467469076,-0.311931133,0.128786802,1.951910973,1.980869384
7.47223616,-0.586057901,0.145608425,1.144697189,1.29421688
7.477003972,-0.801112413,0.169625759,0.329339981,0.882620428
7.481771056,-0.99352324,0.195979834,-0.518328667,1.13761203
7.486537306,-1.206532359,0.239044905,-1.384260654,1.851766821
7.491304389,-1.43309617,0.311294556,-2.240193844,2.67752449
7.496072254,-1.625833154,0.377453327,-3.127102852,3.544654666
7.500839337,-1.76352036,0.440809727,-4.066871166,4.454633358
7.505605587,-1.905959725,0.483153343,-4.976179123,5.35055869
7.51037267,-2.088836908,0.510112524,-5.788496017,6.174960774
7.515140535,-2.311572313,0.522629738,-6.494859695,6.913733497
7.519907566,-2.57598114,0.509735823,-7.07433939,7.545978217
7.524673868,-2.85233283,0.48443985,-7.551602364,8.086852466
7.529440951,-3.06744051,0.433473349,-7.953829288,8.535835681
7.534208764,-3.20317626,0.401097059,-8.281937599,8.888852986
7.538975847,-3.298534155,0.409651279,-8.522491455,9.147732087
7.543742149,-3.425989151,0.464485645,-8.544844627,9.217782721
7.548509181,-3.400370598,0.511296988,-8.600955009,9.262849016
7.553277045,-3.156250477,0.48136425,-8.789419174,9.351337767
7.558044129,-2.88426137,0.406448841,-8.933706284,9.396556405
7.562810431,-2.600130558,0.337249756,-9.012929916,9.386550058
7.567577462,-2.353299618,0.314747334,-8.979815483,9.288389047
7.572345326,-2.212561607,0.326886177,-8.880156517,9.15748127
7.57711241,-2.196864843,0.332748413,-8.6924963,8.971980192
7.58187866,-2.306510925,0.341440678,-8.349686623,8.669131507
7.586645743,-2.437118292,0.364251852,-7.94218874,8.315683193
7.591413608,-2.488872528,0.378739595,-7.507768631,7.918618564
7.596180639,-2.546154499,0.398420334,-6.993316174,7.45306062
7.600946941,-2.63829422,0.455801487,-6.436583519,6.971223622
7.605714024,-2.72554493,0.535833597,-5.894408226,6.516115495
7.610481837,-2.811200857,0.609273195,-5.409276962,6.126527674
7.61524892,-2.934400082,0.680556774,-4.947173119,5.792096618
7.620015222,-3.069360733,0.747014761,-4.474261284,5.47704486
7.624782306,-3.194904804,0.80849123,-3.992732048,5.177159838
7.629550118,-3.296728611,0.857794523,-3.471467018,4.863672916
7.634317201,-3.353139877,0.873449564,-2.896231651,4.516040185
7.639083504,-3.389913797,0.8747015,-2.267315388,4.171011548
7.643850535,-3.432524681,0.89042306,-1.60906601,3.894120226
7.648618399,-3.455961227,0.930483103,-0.979445458,3.710630703
7.653385483,-3.386972427,1.00254631,-0.431835175,3.55853382
7.658151733,-3.209890604,1.085668802,0.011512756,3.388540539
7.662918816,-2.955442905,1.132828236,0.249752998,3.174951833
7.667686681,-2.688863516,1.125941515,0.204039574,2.922218926
7.672453712,-2.466959715,1.107046604,-0.072494507,2.704939532
7.677220014,-2.263879299,1.134814501,-0.492824554,2.579889431
7.681987097,-1.946565151,1.215106964,-0.943498135,2.481086365
7.686754962,-1.338200092,1.345882416,-1.2179842,2.255141786
7.691521993,-0.430650234,1.53375411,-1.100558281,1.936256653
7.696288295,0.630351543,1.755591631,-0.514640808,1.935019433
7.701055379,1.705101967,1.95659399,0.472593308,2.637987338
7.705823191,2.611684799,2.060423374,1.705295563,3.738218149
7.710590274,3.256986141,2.027111292,2.974936485,4.854625218
7.715356576,3.676816463,1.860651016,4.029925346,5.763792138
7.720123608,3.889604568,1.582924128,4.692853928,6.297424115
7.724891472,3.899297714,1.1904881,4.881772995,6.36030598
7.729658556,3.72149229,0.745204687,4.631795883,5.988185702
7.734424858,3.446137905,0.311421156,4.097312927,5.362911786
7.739191889,3.179772377,-0.1136446,3.430148125,4.678651902
7.743959754,2.906674862,-0.551818132,2.68873024,3.997815942
7.748726837,2.613048077,-0.979792118,1.888774872,3.36978981
7.753493087,2.349016666,-1.352870703,0.989027977,2.88553544
7.75826017,2.238405228,-1.652981281,0.063438416,2.783312687
7.763028035,2.37362957,-1.874653578,-0.67740345,3.099567519
7.767795066,2.720104218,-2.013415813,-1.101504326,3.55894956
7.772561368,3.128525734,-1.996605992,-1.119586945,3.876542749
7.777328451,3.432897568,-1.826784253,-0.716158867,3.954087751
7.782096316,3.584639072,-1.602466822,0.052534103,3.926868603
7.786863347,3.612000942,-1.417257786,1.034431458,4.015621855
7.791629649,3.562598228,-1.361914039,2.012733459,4.312541242
7.796396733,3.450642586,-1.44309485,2.885415077,4.723883695
7.801164545,3.242629051,-1.602492213,3.612477303,5.112007113
7.805931629,2.902916908,-1.771959782,4.168048859,5.379535234
7.810697931,2.436560154,-1.909380436,4.557229042,5.509164689
7.815465014,1.872618675,-2.020126343,4.777768135,5.514950543
7.820232826,1.28278017,-2.121127605,4.739017487,5.348176701
7.82499991,0.743195057,-2.20468998,4.383840561,4.962968352
7.829766212,0.301032543,-2.286730051,3.717363358,4.374762308
7.834533295,-0.065923691,-2.351902723,2.847495079,3.693781339
7.839301108,-0.39877224,-2.348982334,1.941689491,3.073580223
7.844068191,-0.662204742,-2.27977562,1.090862274,2.612637077
7.848834493,-0.868650198,-2.155719995,0.294915199,2.342788262
7.853601524,-1.042531252,-1.990812063,-0.460519791,2.293966556
7.858369389,-1.162875414,-1.806099415,-1.189796448,2.455583416
7.863136472,-1.199541807,-1.620142937,-1.931020737,2.791523736
7.867902722,-1.148649216,-1.413250446,-2.645769119,3.211972303
7.872669806,-1.008525133,-1.187477946,-3.278956413,3.630259216
7.87743767,-0.817934275,-0.952142716,-3.773240566,3.976548327
7.882204754,-0.648676872,-0.724142671,-4.064228058,4.178889087
7.886971004,-0.53889966,-0.541915417,-4.15696764,4.226637567
7.891738087,-0.483436585,-0.400951862,-4.125892162,4.173422991
7.896505951,-0.498331308,-0.301412463,-4.00006628,4.042241187
7.901272983,-0.575502396,-0.267221808,-3.818190098,3.870553723
7.906039285,-0.694853783,-0.30790329,-3.616557598,3.695553419
7.910806368,-0.862786293,-0.401712298,-3.421824932,3.551712098
7.915574233,-1.052485943,-0.53652966,-3.25331974,3.461167443
7.920341264,-1.227890491,-0.681124568,-3.096757412,3.400228258
7.925107566,-1.426874399,-0.806769967,-2.954685211,3.378907076
7.929874649,-1.656075001,-0.930054188,-2.798642635,3.382304806
7.934642514,-1.917376041,-1.067672372,-2.628853798,3.424489373
7.939409545,-2.186529636,-1.193195462,-2.490914822,3.522681352
7.944175847,-2.4277668,-1.287590981,-2.399069786,3.647941612
7.948942931,-2.641350031,-1.33170557,-2.367526531,3.78884568
7.953710743,-2.808682203,-1.301533103,-2.407997131,3.921878927
7.958477826,-2.92587018,-1.225568295,-2.558371544,4.075291267
7.963244129,-2.94581604,-1.09389472,-2.830288887,4.229062897
7.968011212,-2.845298052,-0.91076529,-3.180456161,4.363543951
7.972779024,-2.639234543,-0.709067583,-3.596787453,4.517213277
7.977546108,-2.340335846,-0.495325446,-4.055171013,4.708177048
7.98231241,-1.956586957,-0.257010341,-4.524292946,4.935940994
7.987079493,-1.517694712,0.00158143,-4.972763062,5.199208806
7.991847306,-1.074973106,0.297659993,-5.357193947,5.472083299
7.996614389,-0.662741423,0.588502049,-5.646232605,5.715374308
8.001380691,-0.262099981,0.821514607,-5.732182026,5.796679517
8.006147722,0.11298275,0.965451121,-5.498108864,5.583373716
8.010915587,0.401195049,0.976544261,-4.877510071,4.990460966
8.01568267,0.548613548,0.858490586,-3.870914459,4.002744266
8.020448972,0.558608055,0.624320746,-2.567242622,2.700472928
8.025216004,0.493923187,0.308701158,-1.203444481,1.336987337
8.029983868,0.415411472,-0.058444381,0.052856445,0.422819395
8.034750951,0.333645821,-0.48049295,1.246961594,1.377354792
8.039517254,0.177804947,-0.888974369,2.369093895,2.536630819
8.044284285,-0.040811062,-1.200975418,3.377984047,3.585356847
8.049052149,-0.213041782,-1.395285368,4.177349091,4.409359759
8.053819233,-0.27044344,-1.45288372,4.690055847,4.917380869
8.058585483,-0.218789578,-1.392458081,4.901124001,5.099786746
8.063352566,-0.081058979,-1.265695453,4.769456863,4.935207626
8.068120431,0.157199383,-1.059618354,4.261621475,4.394191655
8.072887514,0.468875408,-0.761254311,3.397317886,3.512993182
8.077653764,0.764764786,-0.403042316,2.416211128,2.566200402
8.082420847,0.939139843,-0.058350682,1.536168098,1.801444108
8.087188712,0.967721462,0.21868372,0.752420425,1.245168219
8.091955795,0.94382143,0.440637589,0.119849205,1.048486628
8.096722045,0.960011482,0.629545569,-0.433123589,1.22700681
8.101489129,0.955353737,0.795514345,-1.03278017,1.616223597
8.106256993,0.873856068,0.92463851,-1.558991432,2.012221431
8.111024024,0.771751404,0.995659828,-1.984887123,2.350896768
8.115790326,0.659980297,1.001413941,-2.259789467,2.558329984
8.12055741,0.571014404,0.989387393,-2.318713188,2.584835723
8.125325274,0.532443523,1.00190413,-2.252123833,2.521779084
8.130092306,0.543719292,1.042816639,-2.026330948,2.342885896
8.134858608,0.557013512,1.072665691,-1.562515736,1.975431892
8.139625691,0.539344311,1.044704676,-0.868268967,1.461571464
8.144393556,0.553818703,0.95978111,0.031892776,1.108563072
8.149160587,0.618199825,0.801909924,1.067940712,1.471641231
8.153926889,0.666473866,0.60302788,2.13645649,2.317817156
8.158693972,0.673280716,0.426162303,3.138946533,3.238503755
8.163461837,0.651444912,0.315466464,4.015316963,4.080033073
8.168228868,0.635229588,0.269861043,4.727100372,4.777218808
8.17299517,0.680152416,0.279242575,5.188149452,5.239988403
8.177762254,0.800853252,0.346082032,5.305333138,5.376587989
8.182530118,0.980522633,0.485539436,5.055134773,5.172191098
8.187297149,1.249969959,0.64630729,4.497859955,4.712842262
8.192063451,1.575588226,0.77988869,3.782110214,4.170738819
8.196830535,1.87144804,0.900250375,3.039430618,3.681155659
8.201598399,2.111349106,1.011733055,2.348664284,3.316266385
8.206365431,2.384485722,1.161530018,1.667441368,3.132935501
8.211131733,2.802838326,1.434352994,0.98738575,3.299727536
8.215898816,3.301363468,1.811424494,0.594195366,3.812260167
8.220666681,3.73611784,2.177633762,0.720650673,4.384062352
8.225433712,3.954516888,2.419440746,1.481811523,4.866997301
8.230200014,3.829430103,2.456071854,3.011214256,5.455660837
8.234967097,3.462692738,2.266243696,5.353104591,6.76622718
8.239734962,3.056512833,1.891217232,8.22647953,8.977412699
8.244501993,2.751702309,1.422537804,11.17917347,11.60040512
8.249268295,2.535124302,0.982933521,14.02060413,14.28181899
8.254035379,2.334957123,0.688345432,16.7249527,16.90118005
8.258803243,2.423321724,0.648498893,19.12921906,19.29300549
8.263570274,3.276757717,0.887877464,20.94786453,21.22118036
8.268336576,5.190418243,1.338576913,21.90578079,22.55206114
8.27310366,7.968065739,2.014472961,21.80369186,23.30126932
8.277871524,10.91198158,2.996153355,20.85718918,23.72910907
8.282638556,13.33074379,4.236613274,19.69987106,24.16076451
8.287404858,14.94626141,5.477579117,18.82073784,24.64984332
8.292171941,15.74485588,6.417963505,18.26062012,24.95077132
8.296939806,15.78114319,6.903096199,17.90659714,24.84639689
8.301706837,15.28118515,6.920008659,17.7596035,24.42958567
8.306473139,14.60762978,6.608719349,17.85707474,23.99860699
8.311240222,13.96424294,6.147441864,18.09635162,23.67000347
8.316008087,13.38276672,5.640776634,18.15407562,23.24838205
8.320775118,12.7806263,5.102600098,17.7055397,22.42469782
8.32554142,12.0128727,4.596834183,16.58815575,20.99063853
8.330308504,11.06169701,4.241773605,14.96148586,19.08402062
8.335076368,9.97376442,4.059492111,12.98194981,16.86672682
8.339843451,8.758423805,3.959392548,10.82365036,14.47543381
8.344609701,7.424657345,3.819567204,8.806810379,12.13567218
8.349376785,6.078526974,3.639855146,6.95067215,9.925163928
8.354144649,4.823379993,3.498655558,5.214839935,7.91834205
8.358911733,3.669431686,3.411756277,3.690325737,6.222805946
8.363678035,2.610490322,3.342204332,2.364892006,4.85568777
8.368445066,1.638496399,3.267320633,1.221140862,3.853730604
8.373212931,0.762936592,3.135786533,0.279403687,3.239335711
8.377980014,-0.020815849,2.915663481,-0.531171799,2.963725749
8.382746316,-0.683546066,2.615698099,-1.291168213,2.996035234
8.387513347,-1.198135614,2.237699032,-1.978543282,3.218300704
8.392281212,-1.627966881,1.761995316,-2.530848503,3.487133178
8.397048295,-2.007479668,1.22147274,-2.945527077,3.768036628
8.401814597,-2.361038923,0.64906764,-3.220229626,4.045450833
8.406581629,-2.714787245,0.053673029,-3.343189716,4.306955776
8.411349493,-3.034621716,-0.520043135,-3.357718945,4.555617448
8.416116576,-3.300751925,-1.072686434,-3.331035614,4.810552745
8.420882879,-3.510140181,-1.616750717,-3.323070526,5.096838696
8.42564991,-3.702805042,-2.147825241,-3.360205173,5.441957116
8.430417774,-3.897387743,-2.651701689,-3.456818104,5.845574777
8.435184858,-4.090981483,-3.133102655,-3.627332687,6.301587433
8.43995116,-4.247327805,-3.537080765,-3.854942799,6.738792013
8.444718191,-4.322860718,-3.846895456,-4.115786076,7.101086146
8.449486056,-4.319552422,-4.110302925,-4.436243534,7.431916304
8.454253139,-4.263300419,-4.329483509,-4.82116127,7.756529759
8.459019441,-4.191930771,-4.525729179,-5.215604782,8.078183053
8.463786524,-4.138590336,-4.710710526,-5.602921486,8.409010215
8.468554337,-4.10975647,-4.891210079,-5.949915886,8.730150819
8.47332142,-4.121407509,-5.045446396,-6.189926147,8.986529636
8.478087722,-4.10376215,-5.1635952,-6.411687851,9.1985499
8.482854806,-3.994330406,-5.26919508,-6.730203152,9.43476161
8.487622618,-3.816813469,-5.380984306,-7.10729599,9.697252882
8.492389701,-3.619133472,-5.510446072,-7.49280262,9.980242186
8.497156004,-3.477777243,-5.645105362,-7.846256733,10.27257971
8.501923087,-3.387626648,-5.763008118,-8.141666412,10.53446766
8.506690899,-3.331546545,-5.875867844,-8.360197067,10.74792633
8.511457983,-3.299381495,-5.990702629,-8.497443199,10.90784017
8.516224285,-3.285716057,-6.088331699,-8.548974037,10.99766657
8.520991368,-3.328185081,-6.187757492,-8.531979561,11.05259399
8.525759233,-3.409301281,-6.305533409,-8.482853889,11.10593971
8.530526264,-3.478511095,-6.453429222,-8.442564011,11.18139863
8.535292566,-3.528494358,-6.631251812,-8.418499947,11.28250479
8.540059649,-3.554514647,-6.817174435,-8.403717995,11.3899481
8.544827514,-3.568556786,-7.006388664,-8.407841682,11.51155426
8.549594545,-3.556121826,-7.210656166,-8.404855728,11.63104314
8.554360847,-3.514710188,-7.417927265,-8.399769783,11.74457173
8.559127931,-3.432231665,-7.616177559,-8.395217896,11.84339725
8.563895795,-3.327787161,-7.807785034,-8.381797791,11.92854596
8.568662879,-3.213343143,-8.014239311,-8.390749931,12.03986255
8.573429129,-3.072092772,-8.211533546,-8.415102959,12.15240696
8.578196212,-2.920832157,-8.39971447,-8.433376312,12.25594956
8.582964076,-2.728555202,-8.600335121,-8.450407982,12.36204565
8.58773116,-2.51952076,-8.808614731,-8.418289185,12.44215701
8.592497462,-2.305954456,-9.072382927,-8.380055428,12.56387229
8.597264493,-2.035315275,-9.401285172,-8.357122421,12.74237679
8.602032358,-1.755489707,-9.804765701,-8.280264854,12.95291321
8.606799441,-1.554806471,-10.23255539,-8.118598938,13.15424881
8.611565743,-1.470963717,-10.62268543,-7.822122574,13.27368757
8.616332826,-1.505832195,-10.94201279,-7.335964203,13.2593946
8.621100639,-1.644497395,-11.17185688,-6.676964283,13.11855975
8.625867722,-1.845910072,-11.35336494,-5.938287735,12.94486542
8.630634024,-1.990242004,-11.50357342,-5.327850342,12.83274148
8.635401108,-2.161192417,-11.62508392,-4.795038223,12.75953449
8.64016892,-2.555187702,-11.73718643,-4.200565338,12.72537931
8.644936004,-3.014827728,-11.85672569,-3.677721024,12.77484882
8.649702306,-3.423485518,-11.97658539,-3.237741709,12.87019122
8.654469389,-3.829739571,-12.01545429,-2.829725504,12.92460419
8.659237201,-4.244135857,-11.93980789,-2.524795771,12.92076992
8.664004285,-4.622591972,-11.77336407,-2.415561438,12.87693267
8.668770587,-5.009922028,-11.52515507,-2.523073912,12.81773849
8.67353767,-5.522685528,-11.19923306,-2.78979826,12.79475872
8.678305535,-6.06894207,-10.8089571,-3.161418915,12.79297389
8.683072566,-6.534816742,-10.3558445,-3.512229919,12.73903859
8.687838868,-6.921049118,-9.831996918,-3.757411957,12.59711193
8.692605951,-7.158587456,-9.260737419,-3.958299875,12.35616323
8.697373816,-7.252306938,-8.658226013,-4.114220142,12.0203012
8.702140899,-7.300395966,-7.990685463,-4.290941238,11.64298124
8.706907201,-7.365190506,-7.219622612,-4.568398476,11.28003752
8.711674233,-7.40875721,-6.361616611,-4.90426302,10.92756355
8.716442097,-7.429429054,-5.442621231,-5.337635517,10.64466509
8.721209181,-7.538290977,-4.495472431,-5.90779686,10.58003625
8.725975483,-7.714964867,-3.60061264,-6.565664291,10.75142046
8.730742566,-7.795523643,-2.790479183,-7.343626022,11.06733058
8.735510379,-7.611122131,-2.042539597,-8.245236397,11.40548427
8.740277462,-7.032513618,-1.327447891,-9.068400383,11.55224009
8.745043764,-6.015337944,-0.590107441,-9.603822708,11.34750757
8.749810847,-4.662517548,0.192987442,-9.697176933,10.7615777
8.75457866,-3.239013433,0.997186661,-9.136609077,9.744907116
8.759345743,-2.004646063,1.721318245,-7.947227478,8.374960712
8.764112045,-1.080471277,2.297902107,-6.350200653,6.83906577
8.768879129,-0.320240736,2.707449436,-4.635363102,5.37767865
8.773646993,0.28262496,2.938144207,-3.149726868,4.316636143
8.778414024,0.590274572,2.957205296,-2.079640627,3.663112388
8.783180326,0.600672483,2.689493656,-1.525413275,3.149772884
8.78794741,0.55995822,2.189567089,-1.41500926,2.66645991
8.792715274,0.771122456,1.550134659,-1.54417944,2.319921862
8.797482358,1.139395714,0.828052521,-1.870871544,2.341805693
8.802248608,1.567499638,0.101665497,-2.350179672,2.826788899
8.807015691,2.116397858,-0.584666729,-2.680789709,3.465199639
8.811783556,2.770874023,-1.287831306,-2.522721291,3.962369876
8.816550639,3.544602394,-2.089671135,-1.839024067,4.50698803
8.821316941,4.427205563,-2.991187572,-0.800590992,5.402619561
8.826084024,5.284294605,-3.9010005,0.598876476,6.595470219
8.830851837,6.1248703,-4.747844219,2.36108017,8.101281411
8.83561892,7.065101624,-5.456237316,4.324878216,9.919211571
8.840385222,8.000445366,-5.964659691,6.146691799,11.72032898
8.845152306,8.776407242,-6.184932232,7.604219913,13.15685644
8.849920118,9.464615822,-5.995568275,8.761180878,14.22266086
8.854687201,10.12125397,-5.50740242,9.735068321,15.08452248
8.859453504,10.70468521,-5.022179604,10.53259087,15.83502585
8.864220587,11.14185715,-4.735572815,11.15781593,16.4640058
8.868988451,11.36464691,-4.556271553,11.85383797,17.04195659
8.873755535,11.41583252,-4.242836475,12.8150692,17.67905235
8.878521837,11.37911797,-3.645176172,13.96272373,18.37741247
8.883288868,11.24002075,-2.81422019,15.05290508,18.99599572
8.888056733,10.96951103,-1.905683517,15.86338615,19.38063008
8.892823816,10.58355713,-1.064578056,16.2080307,19.38672915
8.897590118,9.971012115,-0.295987368,16.10420036,18.94344109
8.902357201,9.075321198,0.429661989,15.62926292,18.07816152
8.907125014,8.033031464,1.023204565,14.66016388,16.74804308
8.911892097,7.034976482,1.484758615,13.15580559,14.99235215
8.916658399,6.187586784,1.919798493,11.2383337,12.97196981
8.921425483,5.406471252,2.424152136,9.237560272,10.97446877
8.926193347,4.689142227,2.954712152,7.422965527,9.263843476
8.930960379,4.193218708,3.453816652,5.719642639,7.888361333
8.935726681,3.87710762,3.906938076,3.998277664,6.803113472
8.940493764,3.581576824,4.306580544,2.285605431,6.049654594
8.945261629,3.276215553,4.695280552,0.69482708,5.767324552
8.950028712,2.951804161,5.050595284,-0.694149971,5.890968062
8.954795014,2.54926157,5.339905739,-1.765777588,6.175054521
8.959562045,2.103141785,5.566152573,-2.519589901,6.461702028
8.96432991,1.639137745,5.693463326,-2.991398811,6.637074961
8.969096993,1.11653614,5.714279175,-3.12642765,6.608645042
8.973863295,0.569041252,5.677972317,-2.956123829,6.426651202
8.978630379,0.01102972,5.59077692,-2.612238407,6.170955981
8.983398191,-0.543548584,5.439753056,-2.216547966,5.899105293
8.988165274,-1.047523499,5.264530659,-1.792514324,5.659125033
8.992931576,-1.458295345,5.111758709,-1.344619274,5.483128979
8.99769866,-1.768913269,5.008906364,-0.870356083,5.382909699
9.002466524,-2.005920887,4.978717804,-0.407884121,5.383095674
9.007233608,-2.172011852,5.001225471,-0.023992538,5.452565208
9.011999858,-2.270286083,5.03989315,0.222026825,5.53208982
9.016766941,-2.325515509,5.096866608,0.342752457,5.612802406
9.021534806,-2.33152318,5.183935165,0.370000839,5.696146483
9.026301889,-2.322768688,5.282065392,0.337926865,5.780109319
9.031068191,-2.347661972,5.384271145,0.292421341,5.881105571
9.035835274,-2.380074501,5.49574995,0.24804306,5.994126084
9.040603087,-2.357548952,5.595560551,0.2405653,6.076693723
9.04537017,-2.327459335,5.677397728,0.298389435,6.143203413
9.050136472,-2.322831869,5.718189716,0.361459732,6.182547587
9.054903556,-2.276284933,5.706897259,0.403312683,6.157337943
9.05967142,-2.175240517,5.627592087,0.495383263,6.053665714
9.064438451,-2.082938194,5.50506115,0.718086243,5.929584946
9.069204754,-2.050909042,5.328316212,0.982091904,5.793244864
9.073971837,-2.059592247,5.060272217,1.102917671,5.573571792
9.078739701,-2.116583824,4.726652622,1.042566776,5.282813415
9.083506785,-2.175445795,4.322386265,0.825857639,4.908933517
9.088273087,-2.082931995,3.875595093,0.49973011,4.428156863
9.09304017,-1.738417625,3.394556522,0.285772324,3.824496783
9.097807983,-1.112244129,2.88403964,0.476797581,3.127636102
9.102575066,-0.266680241,2.359679222,1.192481995,2.657295183
9.107341368,0.685121059,1.867607117,2.383894444,3.104883239
9.112108451,1.647959232,1.410919428,3.948583603,4.505305287
9.116876316,2.567368507,0.91624403,5.688374519,6.307811732
9.121643399,3.42492342,0.399009705,7.426435471,8.187872311
9.126409649,4.180740833,-0.139359713,9.098086357,10.0136502
9.131176733,4.823272705,-0.685301423,10.58373833,11.6511422
9.135944597,5.359880447,-1.172645569,11.81171417,13.02382462
9.140711681,5.74517107,-1.587813497,12.77727699,14.09918259
9.145477983,5.95506382,-1.938435078,13.46613407,14.85116435
9.150245066,5.998317719,-2.217617512,13.84785271,15.25321827
9.155012879,5.839747906,-2.453869581,13.84026909,15.22094544
9.159779962,5.477025986,-2.699021339,13.4169693,14.74101743
9.164546264,4.954891205,-2.966236115,12.61221695,13.87146423
9.169313347,4.319579124,-3.242196083,11.45883942,12.66789643
9.174081212,3.662173271,-3.494653702,10.0047369,11.212443
9.178848243,3.031141758,-3.65830636,8.459962845,9.702679894
9.183614597,2.408408642,-3.763775349,7.043485165,8.341290088
9.188381629,1.764031887,-3.867873907,5.744345665,7.146311229
9.193149493,1.17579031,-3.948796272,4.496646404,6.098795269
9.197916576,0.697550297,-3.975439548,3.330197811,5.232677468
9.202682879,0.306987763,-3.94556427,2.331785679,4.593358613
9.207449962,-0.028140545,-3.909597874,1.430671215,4.16324003
9.212217774,-0.349888325,-3.900969744,0.537230969,3.95330291
9.216984858,-0.652484894,-3.905267954,-0.282625198,3.969474944
9.22175116,-0.929899216,-3.898633718,-0.98248148,4.126660548
9.226518243,-1.185540676,-3.8716712,-1.57588625,4.34496974
9.231286108,-1.425024509,-3.807694912,-2.055116177,4.555517303
9.236053191,-1.646672249,-3.737936258,-2.448413372,4.762186998
9.240819493,-1.82474947,-3.674368382,-2.798519135,4.96612555
9.245586576,-1.985832214,-3.595428228,-3.107803583,5.150638489
9.250354389,-2.153924942,-3.496195316,-3.393166065,5.326945681
9.255121472,-2.309824944,-3.388393879,-3.671652555,5.504319834
9.259887774,-2.422315121,-3.240555525,-3.960427284,5.661607098
9.264654858,-2.474362135,-3.052348375,-4.260071754,5.795473228
9.269422722,-2.503934145,-2.849562645,-4.559315681,5.931024612
9.274189806,-2.510855675,-2.641182423,-4.877865791,6.088827103
9.278956056,-2.50939393,-2.455269814,-5.175561428,6.253946262
9.283723139,-2.508671522,-2.334076405,-5.386387825,6.383926634
9.288491004,-2.510589123,-2.281512737,-5.494690895,6.457552644
9.293258087,-2.500286102,-2.270679474,-5.52774334,6.477913421
9.298024389,-2.429694891,-2.260610819,-5.495659828,6.419973169
9.302791472,-2.282007694,-2.241686106,-5.403515816,6.279386824
9.307559285,-2.066634655,-2.228673458,-5.239452362,6.057212662
9.312326368,-1.828703403,-2.229315758,-4.946209908,5.725294519
9.31709267,-1.6277318,-2.270441532,-4.571720123,5.357708507
9.321859754,-1.501990318,-2.366919756,-4.175449371,5.029180997
9.326627618,-1.42991972,-2.473782539,-3.718770027,4.689725042
9.331394701,-1.351685524,-2.55566287,-3.218153477,4.326081167
9.336161004,-1.243340492,-2.632449627,-2.744974375,4.001321149
9.340928087,-1.090447426,-2.700158119,-2.265361786,3.689416414
9.345695899,-0.883368492,-2.750222683,-1.795606136,3.401215385
9.350462983,-0.64093256,-2.793245554,-1.342647076,3.164761672
9.355229285,-0.372260094,-2.801513433,-0.870543957,2.957178026
9.359996368,-0.088698387,-2.761688232,-0.408134937,2.79309209
9.364764233,0.172197819,-2.68418169,0.013186932,2.689731832
9.369531264,0.363364697,-2.598264694,0.364300251,2.648721955
9.374297618,0.471048832,-2.516274452,0.59472847,2.628160207
9.379064649,0.510042667,-2.462182999,0.670799255,2.602395105
9.383832514,0.456703186,-2.459575176,0.580382347,2.568059874
9.388599597,0.303740025,-2.491109848,0.318830967,2.529731105
9.393365899,0.069823265,-2.524773359,-0.123103619,2.528736899
9.398132983,-0.219121456,-2.535665512,-0.685463905,2.635806246
9.402900847,-0.49887228,-2.498994112,-1.26057291,2.843042241
9.407667879,-0.762605667,-2.449886799,-1.812625885,3.141516406
9.412434181,-1.05593729,-2.423351049,-2.373026371,3.552307423
9.417201264,-1.347786903,-2.392217875,-2.934976101,4.019119382
