Time (s),Linear Acceleration x (m/s^2),Linear Acceleration y (m/s^2),Linear Acceleration z (m/s^2),Absolute acceleration (m/s^2)
0.102035052,0.797579527,0.153264046,-1.128346443,1.390247699
0.106802448,0.714592576,0.244407892,-1.554290771,1.728061796
0.111569062,0.665964842,0.280142784,-1.951896667,2.081319233
0.116336458,0.642183423,0.275915384,-2.361365318,2.462635786
0.121104583,0.591709375,0.245729446,-2.718574524,2.793053954
0.125871979,0.554188132,0.159308195,-2.982234001,3.037469872
0.130638593,0.533050895,0.03736186,-3.150785446,3.195776602
0.135405989,0.392003536,-0.037149668,-3.203661442,3.227769122
0.140174166,0.194565892,-0.076109648,-3.152351856,3.159267445
0.144941562,0.066682339,-0.148023605,-2.963345528,2.967789453
0.149708177,0.006577611,-0.268569708,-2.511685371,2.526011947
0.154475573,0.015713453,-0.402619839,-1.721955776,1.768468643
0.15924375,0.088797569,-0.518764138,-0.660695076,0.844700671
0.164011146,0.213261843,-0.627809048,0.350344181,0.749910567
0.16877776,0.37164557,-0.744652391,1.034620285,1.327805237
0.173545156,0.525997996,-0.851569533,1.488651276,1.793858184
0.178313333,0.639443874,-0.943093061,1.855559349,2.1774787
0.183080729,0.729315877,-1.022925138,2.111122131,2.45664693
0.187847343,0.76080513,-1.085192919,2.235939026,2.599209773
0.192614739,0.7202003,-1.124092817,2.215294838,2.58646561
0.197382916,0.619336128,-1.152373195,2.062343597,2.442294481
0.202150312,0.442566842,-1.182216525,1.875705719,2.2609231
0.206916927,0.223988652,-1.202043295,1.716361046,2.107361915
0.211684323,0.071852148,-1.200332642,1.587857246,1.991796128
0.2164525,0.093261838,-1.175146818,1.444753647,1.864666435
0.221219896,0.171120495,-1.176078081,1.245210648,1.721334202
0.22598651,0.197401285,-1.214099407,1.146875381,1.681763294
0.230753906,0.210513517,-1.250778913,1.266402245,1.792355566
0.235522083,0.216498628,-1.274469852,1.575444221,2.037932667
0.240289479,0.287719369,-1.253211498,2.212532997,2.559027893
0.245056093,0.385658085,-1.183429241,3.151871681,3.388736051
0.249823489,0.506304681,-1.111948967,3.972473145,4.156118119
0.254591614,0.422144473,-1.166940689,4.077752113,4.262395902
0.25935901,0.099999636,-1.284496307,4.143421173,4.339109322
0.264125677,-0.121377081,-1.282855749,4.266050339,4.456415237
0.268893073,-0.215631872,-1.150146246,3.675168991,3.856967799
0.273661198,-0.296985626,-0.972809851,2.867787361,3.042821687
0.278428593,-0.42271328,-0.863346338,2.218296051,2.417620894
0.28319526,-0.519408703,-0.849924684,1.709043503,1.97812716
0.287962604,-0.523780406,-0.877913654,1.268861771,1.629444227
0.292730781,-0.44831422,-0.893983722,0.842103005,1.307413479
0.297498177,-0.344715238,-0.895332754,0.458797455,1.063458715
0.302264791,-0.265818,-0.874841571,0.197896004,0.93550511
0.307032187,-0.232231021,-0.825635672,0.090035439,0.86238732
0.311800364,-0.193313271,-0.724485278,0.076053619,0.753679701
0.31656776,-0.092411667,-0.560142458,0.053163528,0.570198079
0.321334375,0.00434196,-0.399250239,-0.01617527,0.399601358
0.326101771,0.076300502,-0.276768625,-0.098266602,0.303445157
0.330869948,0.10728991,-0.262292683,-0.388417244,0.480808207
0.335637343,0.168138385,-0.24565205,-0.589062691,0.660007803
0.340403958,0.290154159,-0.130332828,-0.461381912,0.560401063
0.345171354,0.395741522,-0.005166531,-0.274453163,0.481624942
0.349939531,0.464075327,0.103561163,-0.125766754,0.49184154
0.354706927,0.487489939,0.167556107,-0.174944878,0.54435944
0.359473541,0.479775548,0.208310291,-0.343497276,0.625754051
0.364240937,0.495195866,0.249491841,-0.391402245,0.678720002
0.369009114,0.580989718,0.285945296,-0.270857811,0.701910051
0.37377651,0.718353748,0.331466913,-0.012612343,0.791240478
0.378543125,0.855583549,0.394701898,0.369614601,1.012140183
0.383310521,0.971825004,0.453517258,0.798652649,1.33714913
0.388078698,1.072425246,0.493062437,1.155873299,1.652044054
0.392846093,1.148439407,0.541706443,1.333626747,1.841444879
0.397612708,1.219906807,0.608796597,1.374339104,1.935875483
0.402380104,1.271272779,0.682368875,1.355230331,1.979497666
0.407148281,1.29610765,0.745975614,1.253311157,1.951195406
0.411915677,1.258793116,0.783503771,1.019973755,1.799662393
0.416682343,1.171093583,0.793027043,0.699424744,1.577829853
0.421449739,1.077619433,0.791565239,0.349503517,1.382024558
0.426217864,0.971032739,0.812573552,0.041436195,1.266845419
0.43098526,0.872855902,0.851115465,-0.168642998,1.230737755
0.435751927,0.771038175,0.88107121,-0.334000588,1.217514984
0.440519323,0.643696666,0.888438642,-0.523730278,1.215714614
0.4452875,0.519368529,0.866557837,-0.718655586,1.239811278
0.450054843,0.408124328,0.839518309,-0.776885986,1.214458024
0.45482151,0.282559156,0.811985493,-0.645748138,1.075244519
0.459588906,0.174245715,0.767112136,-0.469467163,0.916090615
0.464357083,0.127917767,0.709435582,-0.345546722,0.799414997
0.469124479,0.198892832,0.669305742,-0.232964516,0.736071328
0.473891093,0.405909658,0.643535137,-0.178688049,0.781555847
0.478658489,0.799002767,0.652559757,-0.077733994,1.034544456
0.483426666,1.367878437,0.693031907,0.04360199,1.534042299
0.488194062,1.889030814,0.71195972,0.05510807,2.019495224
0.492960677,2.215216637,0.664229035,0.175699234,2.319322138
0.497728073,2.564315319,0.557094574,1.10687542,2.848023984
0.50249625,3.225254059,0.547174335,2.600933075,4.179296156
0.507263646,3.774692535,0.700247705,1.922068596,4.293366776
0.51203026,3.892789602,0.937620759,-0.672174454,4.06014311
0.516797656,3.903511286,1.188619018,-2.361459732,4.714520929
0.521565833,3.817718506,1.368367672,-2.924986839,5.00029526
0.526333229,3.613474369,1.418777943,-2.973613739,4.890041568
0.531099843,3.409113884,1.36557436,-2.908327579,4.684572565
0.535867239,3.259749174,1.253264904,-3.017131805,4.615162178
0.540635416,3.141933441,1.082919121,-3.220174789,4.627524743
0.545402812,3.009549856,0.853194594,-3.293884754,4.542577256
0.550169427,2.876393318,0.588862121,-3.325179577,4.435900848
0.554936823,2.65328908,0.300318956,-3.499685287,4.402037202
0.559705,2.321066618,0.035851836,-3.71210146,4.378165466
0.564472396,1.967141628,-0.173212111,-3.815374851,4.296130105
0.569239062,1.645448446,-0.288755596,-3.746959686,4.102509875
0.574006458,1.28412509,-0.291872501,-3.435523033,3.679264235
0.578774583,0.883110762,-0.204061508,-2.91479969,3.052471613
0.583541979,0.580406666,-0.049151897,-2.287165642,2.360172553
0.588308646,0.374771833,0.106514573,-1.677745342,1.722390407
0.593076041,0.232720614,0.182735324,-1.260003567,1.29427975
0.597844218,0.217142344,0.104506612,-1.108213425,1.134111733
0.602611614,0.292767286,-0.186116576,-1.148711205,1.199953955
0.607378229,0.270487547,-0.661036015,-1.268138409,1.455440534
0.612145625,0.189953566,-1.188342094,-1.389382839,1.838103361
0.616913802,0.246734619,-1.623698473,-1.390572071,2.151967794
0.621681198,0.382990837,-1.883265853,-1.312223911,2.327080542
0.626447812,0.393783808,-1.993076563,-1.389145851,2.461126992
0.631215208,0.163580656,-1.988460779,-1.557416439,2.531063189
0.635983385,-0.205729723,-1.857328892,-1.630235195,2.47985123
0.640750781,-0.540895224,-1.642430067,-1.588804245,2.34828514
0.645517396,-0.781051517,-1.404944777,-1.488317966,2.190662381
0.650284791,-0.938605547,-1.215119123,-1.265010834,1.989408773
0.655052968,-0.987033606,-1.11898911,-0.748933792,1.66951304
0.659820364,-0.949787259,-1.138099194,-0.051815987,1.483256724
0.664587031,-0.889213085,-1.272236824,0.494823456,1.629152141
0.669354427,-0.839391232,-1.473633289,0.778382301,1.866025648
0.674122552,-0.78113699,-1.672970295,0.891155243,2.050161523
0.67889,-0.715550661,-1.855844259,1.012244225,2.231772621
0.683656614,-0.735877276,-2.064437389,1.207515717,2.502301202
0.68842401,-0.887783766,-2.269263268,1.39994812,2.810261648
0.693192187,-1.184346914,-2.462437153,1.461103439,3.098563797
0.697959583,-1.526801944,-2.67867732,1.372756958,3.375040448
0.702726198,-1.85247016,-2.912213802,1.235556602,3.665956225
0.707493593,-2.187272549,-3.147793055,1.068680763,3.979301558
0.712261771,-2.557011127,-3.311065674,0.843657494,4.267694901
0.717029166,-2.927734613,-3.352396727,0.560699463,4.48604254
0.721795781,-3.260862112,-3.352949381,0.277017593,4.685320695
0.726563177,-3.349968433,-3.232168436,-0.014491081,4.655041492
0.731331354,-2.980895281,-2.779437542,-0.334978104,4.089403386
0.73609875,-2.290637255,-2.004486799,-0.617371559,3.105822597
0.740865364,-1.450595379,-1.052751064,-0.802292824,1.963717274
0.745632812,-0.55911541,-0.099666864,-0.826215744,1.00258465
0.750400989,0.267352343,0.730491042,-0.692728043,1.04161729
0.755168385,1.010214329,1.37825048,-0.45993042,1.769644983
0.759935,1.627394915,1.780112386,-0.235553742,2.423365404
0.764702396,2.050925732,1.897045612,-0.071926117,2.794682769
0.769470573,2.227869511,1.735762477,0.052545547,2.824718564
0.774237968,2.12284255,1.343588829,0.15428257,2.517040831
0.779004583,1.772005558,0.829554975,0.254335403,1.973031082
0.783771979,1.223126173,0.245082423,0.280837059,1.278660425
0.788540156,0.592360973,-0.365717471,0.229103088,0.732890862
0.793307552,-0.033931732,-0.928401411,0.149427414,0.940961792
0.798074166,-0.568323851,-1.41666925,0.023171425,1.526591195
0.802841562,-0.965058327,-1.823975086,-0.134549141,2.067927987
0.807609739,-1.250319242,-2.1632061,-0.272884369,2.513408984
0.812377135,-1.417239904,-2.411854744,-0.391070366,2.824632416
0.817143802,-1.592232466,-2.590189934,-0.526406288,3.085675242
0.821911198,-1.825558662,-2.825832367,-0.433614731,3.392051699
0.826679375,-2.03531456,-3.095714569,-0.035951614,3.705029901
0.831446771,-2.214380741,-3.255245686,0.331457138,3.950945504
0.836213385,-2.420255661,-3.259890079,0.438022614,4.083672931
0.840980781,-2.708065987,-3.169470072,0.161831856,4.171972132
0.845748958,-2.954474449,-3.052445412,-0.515754223,4.279292544
0.850516354,-3.053849697,-2.852582693,-1.553536892,4.458329605
0.855282968,-3.017595291,-2.490065098,-2.870140553,4.852217258
0.860050364,-2.844382286,-2.000111818,-4.213655949,5.463135943
0.864818541,-2.461228132,-1.532532454,-5.355175018,6.089679722
0.869585937,-2.105180502,-1.210211873,-6.288309574,6.740863077
0.874352604,-2.216972113,-1.069452524,-7.111165524,7.52511589
0.87912,-2.72254324,-1.051434636,-7.764410496,8.294807221
0.883888177,-3.133627892,-1.096052766,-8.144104004,8.794736236
0.888655573,-3.31726408,-1.215522885,-8.306298256,9.026423853
0.893422187,-3.410384655,-1.453026175,-8.256612778,9.050616726
0.898189583,-3.588856697,-1.863275647,-7.927227974,8.899024209
0.90295776,-4.051103592,-2.443150759,-7.384143353,8.769606547
0.907725156,-4.768043041,-3.070354223,-6.802700996,8.856525862
0.912491771,-5.411211967,-3.594954967,-6.247598171,9.013179189
0.917259166,-5.701972485,-3.956119061,-5.732985497,9.001693782
0.922027343,-5.777599812,-4.172073841,-5.32055378,8.893545538
0.926794791,-5.798382282,-4.270460129,-4.995540619,8.764330715
0.931561406,-5.740509987,-4.200148582,-4.755125046,8.556045654
0.936328802,-5.630393505,-3.967240572,-4.598801613,8.281866037
0.941096979,-5.470689297,-3.703993559,-4.537827015,8.014978708
0.945864375,-5.194935799,-3.465742111,-4.564370155,7.735127746
0.950630989,-4.931506157,-3.309651852,-4.487839699,7.444075061
0.955398385,-4.907168388,-3.251582623,-4.167002201,7.212281088
0.960166562,-5.037601471,-3.231137514,-3.64289093,7.006306626
0.964933958,-5.172564507,-3.287965775,-3.044230223,6.843499117
0.969700573,-5.457957745,-3.534885406,-2.484654665,6.961194322
0.974468021,-5.974310875,-3.962359667,-1.894041061,7.414855096
0.979236198,-6.55638504,-4.482542992,-1.162358284,8.026858243
0.984003593,-6.995257378,-5.001283646,-0.374869824,8.607380047
0.988770208,-7.357406139,-5.491727829,0.365069389,9.188241143
0.993537604,-7.694956779,-5.922547817,1.031292915,9.764860345
0.998305781,-7.867092133,-6.189247608,1.607461929,10.13813881
1.003073177,-7.862714767,-6.252709866,2.160908222,10.27561135
1.007839791,-7.635776043,-6.148507118,2.76617384,10.18631107
1.012607187,-6.995979309,-5.915001869,3.414489746,9.776999224
1.017375364,-6.050217628,-5.578917027,4.076000214,9.18385683
1.02214276,-5.052924633,-5.212064266,4.692459583,8.643890224
1.026909427,-4.063804626,-4.866644382,5.269331455,8.244063899
1.031676823,-3.088956833,-4.510643482,5.86837244,8.020308849
1.036445,-2.126980066,-4.073854923,6.45525074,7.92405201
1.041212396,-1.052693367,-3.56725359,6.914800644,7.851619543
1.04597901,0.130143166,-3.087179184,7.229940891,7.862547796
1.050746406,1.258653641,-2.626588345,7.564701557,8.10604003
1.055514583,2.346737862,-2.159342766,7.913603783,8.532002379
1.060281979,3.462686062,-1.728342056,8.145606041,9.018218161
1.065048593,4.460536957,-1.418828011,8.31614399,9.542940518
1.069816041,5.166992188,-1.317795277,8.604177475,10.12256206
1.074584218,5.59325552,-1.423648834,8.968599319,10.66522654
1.079351614,5.848137856,-1.660951614,9.301979065,11.11243858
1.084118229,6.063097477,-1.873748779,9.559983253,11.47455295
1.088885625,6.244582176,-2.016201496,9.618434906,11.64363195
1.093653802,6.303874969,-2.230784416,9.356229782,11.50018585
1.098421198,6.348495483,-2.537909508,8.978712082,11.2854619
1.103187812,6.552470207,-2.855708599,8.789653778,11.32907547
1.107955208,6.727938652,-3.164574146,8.909313202,11.60411779
1.112723385,6.76648283,-3.392579556,9.235843658,11.94134389
1.117490833,6.845562935,-3.520562172,9.518396378,12.24156687
1.122257448,6.993590355,-3.586942673,9.695472717,12.48113196
1.127024843,7.307730675,-3.611314774,9.893567085,12.8190168
1.131793021,7.855718613,-3.596922398,10.18806553,13.35839979
1.136560416,8.483023643,-3.528017521,10.56581688,14.00161005
1.141327031,9.031052589,-3.357871056,10.91119671,14.55642204
1.146094427,9.480225563,-3.073237896,11.17348385,14.97218118
1.150862604,9.847164154,-2.739502907,11.39973545,15.31095968
1.15563,10.12738419,-2.466981411,11.60799885,15.60113922
1.160396666,10.41908264,-2.248632431,11.83779907,15.92944185
1.165164062,10.61812973,-2.000806808,12.03806877,16.17600095
1.169932239,10.4974575,-1.744524956,11.99422073,16.03437908
1.174699635,10.17903519,-1.555336952,11.62659836,15.53092463
1.17946625,9.814905167,-1.42246151,11.02828979,14.83168689
1.184233646,9.56298542,-1.249474525,10.18259048,14.02487168
1.189001823,9.407804489,-0.950154305,9.235268593,13.21740385
1.193769218,9.411413193,-0.438293457,8.034929276,12.38252349
1.198535885,10.02804947,0.319892883,5.441996098,11.41400145
1.203303281,10.98289871,1.248621941,1.659270763,11.17749079
1.208071458,11.71819687,2.247498989,-1.645942211,12.04477129
1.212838854,12.27803326,2.976831436,-4.280089378,13.3390701
1.217605468,12.58284283,3.26863718,-6.910768509,14.72313295
1.222372864,12.03313637,3.297047138,-9.174821854,15.48690565
1.227141041,10.33813477,3.180112362,-10.04113865,14.75854364
1.231908437,8.535499573,2.938096523,-9.291501999,12.95450399
1.236675104,7.562469482,2.560647011,-7.509034157,10.96054067
1.2414425,7.060792446,2.151805878,-5.591932297,9.260386888
1.246210677,6.205258369,1.832381725,-4.12684536,7.674223534
1.250978073,5.16793108,1.782287598,-3.038249731,6.254200361
1.255744687,4.761867523,2.12594223,-2.32510972,5.70974149
1.260512083,4.613153458,2.667355537,-1.802789092,5.625479437
1.26528026,4.332456589,3.145189285,-1.428417563,5.541008254
1.270047656,3.940253258,3.370942116,-1.280703306,5.341258975
1.274814323,3.371448994,3.269232273,-1.232314229,4.855218464
1.279581718,2.73307085,3.020421028,-1.370065093,4.297638633
1.284349896,2.053331375,2.696941853,-1.532224059,3.719862317
1.289117291,1.203834057,2.101885319,-1.509819031,2.854241026
1.293883906,0.283287048,1.301445007,-1.50942421,2.013050447
1.298651302,-0.504722118,0.559543133,-1.498652339,1.67743607
1.303419479,-1.259578705,-0.168480873,-1.312790394,1.82711328
1.308186875,-2.043727636,-1.012372017,-1.12333858,2.54236294
1.312953489,-2.73310709,-1.83920002,-0.842515409,3.400347525
1.317720885,-3.307090998,-2.624170303,-0.366592288,4.237630299
1.322489114,-3.558335543,-3.52241993,0.214471579,5.011505966
1.32725651,-3.265269995,-4.333675385,0.713106155,5.472773599
1.332023125,-2.78465414,-4.682134628,1.24518764,5.588128096
1.336790521,-2.383856058,-4.374834061,1.72056973,5.270892046
1.341558698,-2.156760454,-3.627049446,2.196798325,4.75741802
1.346326093,-2.237093687,-2.8985672,2.818109035,4.620391597
1.351092708,-2.567787886,-2.416312218,3.390107155,4.891311264
1.355860156,-1.578647137,-1.36041832,2.350367546,3.141192829
1.360628333,1.036282539,0.470671654,-0.173116326,1.151252609
1.365395729,3.111410618,2.145747185,-2.113926172,4.330564729
1.370162343,3.404410839,3.039060116,-3.513559818,5.759427241
1.374929739,2.310819149,2.968931675,-3.796788692,5.345095397
1.379697916,1.317937851,2.579106331,-2.721624136,3.974416634
1.384465312,1.247235775,2.312259197,-1.453654885,3.002540957
1.389231927,1.880861282,2.115373135,-0.363606513,2.853883732
1.393999375,2.784613132,1.997689247,0.903285503,3.544115874
1.398767552,3.66455555,1.751630306,2.675295115,4.863576879
1.403534948,3.834805012,1.113864899,3.629146576,5.396029036
1.408301562,3.025001526,0.304130554,2.642080545,4.027867827
1.413068958,2.15551281,-0.263659477,1.522493124,2.652119361
1.417837135,1.715598106,-0.435212135,1.590581298,2.379629242
1.422604531,1.216684341,-0.393253326,1.849983335,2.248868005
1.427371198,0.524625301,-0.279567719,1.640814304,1.745182339
1.432138593,-0.103775978,-0.035545349,1.338311911,1.342799946
1.436906771,-0.082295895,0.312958717,0.720563829,0.789891135
1.441674166,0.215229034,0.37338829,-0.50545466,0.664249024
1.446440781,0.349736214,0.072052956,-1.711743832,1.748592003
1.451208177,0.707278252,-0.27295208,-2.584948778,2.693827305
1.455976354,0.919557571,-0.589916229,-3.042160511,3.232387331
1.46074375,0.761460304,-0.840195656,-2.640111446,2.873314982
1.465510416,0.216732502,-1.047049522,-1.767297268,2.065581108
1.470277812,-0.359276772,-1.219704628,-1.111099482,1.688579651
1.475045989,-0.541374683,-1.298446655,-0.690057933,1.566917425
1.479813385,-0.447924614,-1.290823936,-0.329544604,1.405511487
1.48458,-0.328264713,-1.235453606,0.070245437,1.280249099
1.489347396,-0.258889198,-1.220807076,0.418047249,1.31611437
1.494115573,-0.003561974,-1.196735382,0.610636056,1.343526946
1.498882968,0.570044994,-1.05384922,0.991665244,1.555297216
1.503649635,1.047567368,-0.924033165,1.32350862,1.92429461
1.508417031,1.126324177,-0.907426834,1.457636714,2.05346887
1.513185208,1.07986021,-0.912883759,1.744826317,2.245857009
1.517952604,1.009244919,-0.963993073,2.024367571,2.458845667
1.522719218,0.812454224,-1.155826569,2.05561924,2.494311003
1.527486614,0.524136543,-1.444591522,1.846943974,2.402658075
1.532254843,0.197874546,-1.843949318,1.633164644,2.471139449
1.537022239,-0.160642624,-2.262521744,1.459632158,2.697283213
1.541788854,-0.417209625,-2.463822365,1.278669,2.807040956
1.54655625,-0.521812916,-2.441345215,1.054366112,2.710007947
1.551324427,-0.587296963,-2.353490829,0.893762708,2.58508193
1.556091823,-0.426127672,-2.1866436,0.808542371,2.369965357
1.560858489,0.057368755,-1.882095337,0.57737428,1.969501229
1.565625885,0.531267643,-1.479131699,0.161826164,1.579956834
1.570394062,0.953283787,-0.930940628,-0.754426122,1.531195351
1.575161458,1.607876778,-0.264929771,-2.11220479,2.667745226
1.579928073,2.04014349,0.241570473,-2.841995239,3.506776111
1.584695468,2.08095026,0.467235565,-2.693243027,3.43543608
1.589463646,2.194416523,0.439149857,-2.170565844,3.117638939
1.594231041,2.244691849,0.122448921,-1.719825506,2.830447845
1.598997708,2.158772945,-0.269247055,-1.422578573,2.59933153
1.603765104,1.86479044,-0.620400429,-1.166543126,2.285424018
1.608533281,1.241277695,-0.937408447,-1.01626122,1.858034386
1.613300677,0.565598965,-1.260095596,-0.964260876,1.68450056
1.618067291,0.136831284,-1.643082619,-1.036521792,1.947516551
1.622834687,0.247255325,-2.053032875,-0.991663218,2.293354556
1.627602864,0.196434975,-2.680576324,-0.758485317,2.792736312
1.632370312,-0.072600365,-3.188577652,-0.626134932,3.250283558
1.637136927,-0.034473896,-3.133554459,-0.686651826,3.208090199
1.641904323,0.187179089,-2.648845673,-0.866818011,2.793347968
1.6466725,0.402245045,-3.903689384,-0.752394438,3.99583399
1.651439896,-0.026977062,-6.377755165,1.046756029,6.463140637
1.65620651,0.127834797,-5.596617699,1.343726873,5.757088962
1.660973958,0.026685238,-2.659820557,0.173976421,2.665637877
1.665742135,-0.413949013,-0.111445427,0.084061384,0.436852589
1.670509531,0.025872231,1.927571297,-0.489742965,1.988981812
1.675276146,0.278037071,2.82334137,-0.922694087,2.983274289
1.680043541,0.685930729,2.719608307,-1.133476615,3.025151161
1.684811718,0.767865658,1.500331879,-1.367580175,2.170458235
1.689579114,0.939614296,-0.189371109,-1.840029359,2.074715519
1.694345781,1.483147144,-1.245166779,-1.848695874,2.677282614
1.699113177,1.141571045,-1.954469681,-1.157041907,2.542023241
1.703881354,0.322908878,-2.341284752,-0.560213804,2.428934734
1.70864875,-0.139356613,-2.346302032,0.13153033,2.354114212
1.713415364,-0.596476078,-2.62812233,1.337959647,3.008811511
1.71818276,-1.42824173,-3.702918053,3.402775288,5.227844317
1.722950937,0.278348923,-5.074476242,4.971057892,7.109093038
1.727718385,-0.414261818,-5.886480331,9.035050392,10.79140395
1.732485,-2.662044287,-4.205863953,10.96752167,12.04418129
1.737252396,-0.673612595,-0.545797348,7.562673092,7.612205526
1.742020573,0.618950844,1.917667389,5.26860857,5.640814181
1.746787968,0.47555685,2.648421288,3.812054873,4.666053149
1.751554583,0.485883713,2.503677845,2.265595675,3.411364755
1.756322031,0.477500677,2.333324432,0.648091674,2.468285361
1.761090208,0.64180994,2.714359283,-0.893138528,2.928713497
1.765857604,1.292567968,3.405259609,-2.223412514,4.267327989
1.770624218,2.610374689,3.529827118,-3.948657751,5.904712824
1.775391614,1.247986794,1.682872772,-5.727390289,6.098567974
1.780159791,-2.222103596,0.260087013,-4.865596294,5.355316699
1.784927187,-2.775252104,0.452987671,-3.396379471,4.40937814
1.789693854,-1.617042542,0.468165398,-3.011333704,3.44994726
1.79446125,0.306624651,1.32446003,-2.485061169,2.832621058
1.799229427,1.053215742,1.966850758,-1.061050653,2.470545242
1.803996823,0.301003695,2.601207733,0.887726307,2.764948985
1.808763437,1.164557695,3.868857861,1.797748566,4.42223424
1.813530885,3.257651091,4.513988972,2.499155045,6.101980252
1.818299062,3.64147377,4.591578007,1.05718112,5.954876299
1.823066458,2.665100574,4.530937195,-1.500253081,5.466526525
1.827833073,2.239577532,4.606929779,-1.664350986,5.386053631
1.832600468,2.154946566,4.809450626,-0.734403849,5.321086265
1.837368646,1.989097118,4.884832859,-0.370599717,5.287290758
1.842136041,2.087473392,5.240764141,-0.253665626,5.646901823
1.846902708,2.56527257,5.592094898,-0.145767704,6.154136571
1.851670104,2.162024498,4.824166298,-0.229554683,5.291467259
1.856438281,1.339566231,3.613638401,-0.712411821,3.91922834
1.861205677,0.810111523,2.5831213,-1.777248144,3.23842667
1.865972291,0.341621876,1.637457848,-2.62888217,3.115926054
1.870739687,-0.130649567,0.82482338,-2.705161095,2.831130422
1.875507864,-0.504170179,0.035637856,-2.129569054,2.188726109
1.880275312,-0.822847128,-0.638926506,-1.342745543,1.69949112
1.885041927,-1.021517277,-1.012687683,-0.571786523,1.547893316
1.889809323,-1.140255809,-1.324991226,0.421895266,1.79827158
1.8945775,-1.264519453,-1.838453293,1.328244567,2.596758284
1.899344896,-1.285993576,-2.459135056,1.50804019,3.158371402
1.904111562,-1.061914206,-2.862059593,1.160043716,3.265692625
1.908878958,-0.412680626,-2.737740517,0.740489006,2.865981927
1.913647135,0.132113457,-2.41967392,0.336724758,2.44656073
1.918414531,0.256396294,-2.441195488,0.046076745,2.455055506
1.923181146,0.468242407,-2.701566696,-0.644414067,2.816555175
1.927948541,0.866845846,-3.219473839,-1.724255323,3.753596934
1.932716718,1.478997231,-3.498046875,-1.87047112,4.233488745
1.937484166,2.403341532,-3.501670837,-1.506107926,4.50623016
1.942250781,6.379682541,-8.892611504,1.66188395,11.06981242
1.947018177,9.434469223,-10.93621635,5.064676762,15.30558684
1.951786354,6.477475166,-5.088043213,5.289936543,9.789243939
1.95655375,1.587170124,-1.067009926,5.534136772,5.855278729
1.961320364,-1.411831856,1.116545677,4.107458115,4.484546309
1.966087812,-2.272981644,1.562140465,0.194170773,2.764856357
1.970855989,-2.560521603,0.721585274,-3.635353565,4.504747688
1.975623385,-1.633128643,-0.593822479,-5.518080711,5.785235435
1.98039,0.571346283,-2.086435318,-4.398597717,4.901766089
1.985157396,2.01628828,-2.974370003,-1.287976146,3.817221227
1.989925573,2.394355297,-2.730428696,0.64508903,3.688403179
1.994693021,2.380346298,-1.790395737,0.791719377,3.081944997
1.999459635,1.785798788,-1.201655388,1.102292418,2.418284838
2.004227031,1.037714243,-0.912930489,0.915179133,1.657662744
2.008995208,0.138799191,-0.731437683,0.214272142,0.774712108
2.013762604,-1.322297573,-0.886817932,-0.416166961,1.645634181
2.018529218,-2.411676407,-2.211607933,-1.262449026,3.507302423
2.023296666,-3.440437078,-4.218549728,-0.459778845,5.462981392
2.028064843,-4.71532011,-4.933333397,0.402034402,6.836201709
2.032832239,-4.582741737,-4.711956024,-0.187936485,6.575665102
2.037598854,-3.238870621,-4.30605793,-0.092048168,5.388960072
2.04236625,-2.345971107,-3.800562859,0.417018712,4.485728824
2.047134427,-2.653125286,-3.212366104,0.148249507,4.168974417
2.051901823,-3.367309093,-2.417225838,-0.870881081,4.235585572
2.056668489,-2.847576141,-2.366380692,-2.481568336,4.457199666
2.061435885,-1.309776068,-3.389289856,-2.234289646,4.265542087
2.066204062,0.419200659,-4.804611206,0.925222993,4.910810078
2.070971458,0.403505564,-5.020756721,4.240590572,6.584331644
2.075738073,-1.286654711,-3.632279396,4.327866077,5.794769947
2.080505521,-1.968534708,-2.297217369,2.096180439,3.680531072
2.085273698,-1.727217674,-1.657431602,0.83620882,2.535666698
2.090041093,-1.410299063,-1.883354187,0.63309741,2.436550589
2.094807708,-1.207638264,-2.741994858,1.537315845,3.367531141
2.099575104,-0.697537422,-2.508019447,2.311142206,3.481105902
2.104343281,-0.340698242,-1.071403503,2.311872005,2.570745598
2.109110677,-0.767574787,0.051730156,1.98943603,2.133003231
2.113877343,-1.310944319,0.824763298,0.831572771,1.757931392
2.118644739,-1.322151661,1.527853012,-1.067979097,2.285388193
2.123412916,-0.821706057,2.141646385,-3.091629028,3.849677926
2.128180312,-0.646344662,2.584563255,-4.282365322,5.043449355
2.132946927,-0.825359583,2.98306036,-4.350504398,5.339171853
2.137714323,-0.678693771,3.505984306,-4.019130707,5.376426586
2.142482552,-0.399227619,4.068572044,-3.399757862,5.317049435
2.147249948,-0.255394459,4.452697277,-2.601266384,5.163170167
2.152016562,-0.130136728,4.66311121,-1.977667809,5.066824616
2.156783958,0.184008122,4.81222105,-1.462839007,5.033013847
2.161552135,0.525928974,4.821085453,-1.021402359,4.956080004
2.166319531,0.806553125,4.696929455,-0.656491935,4.810681439
2.171086198,1.030898094,4.549787045,-0.217084169,4.670164726
2.175853593,0.880284071,3.860765934,1.654536009,4.291608445
2.180621771,0.199827194,3.266521931,4.422568321,5.501745813
2.185389166,-0.274770021,2.953892708,4.560434341,5.440454216
2.190155781,-0.599239111,2.502758026,2.698665857,3.729032402
2.194923229,-1.230831623,2.18889761,0.882436991,2.661750227
2.199691406,-1.903764129,1.692810535,0.289920926,2.563977283
2.204458802,-2.357208252,1.495138168,0.590192437,2.853102872
2.209225416,-2.019650936,1.817582607,-0.227439523,2.726595895
2.213992812,-1.076353908,1.848974228,-1.254971862,2.480362434
2.218760989,-0.268853903,1.434006691,-1.107239962,1.831567073
2.223528385,0.38830328,1.253864288,-0.701351345,1.488236809
2.228295052,1.007558346,1.510607719,-0.752019167,1.965360611
2.233062448,1.608159065,2.171644688,-0.707766116,2.793411732
2.237830625,2.224525213,3.261909008,-0.45618999,3.97450275
2.242598021,2.596173763,4.627285957,0.016193151,5.305860511
2.247364635,2.512050629,5.617352486,0.355422378,6.16371417
2.252132031,1.922010541,5.724191189,0.5269382,6.061200636
2.25690026,1.108472943,5.253476143,0.38544476,5.382963079
2.261667656,0.536416888,4.756334782,-0.456369877,4.808194786
2.266434271,0.541884899,4.603380203,-1.522203684,4.878714236
2.271201666,0.991495132,4.710439682,-2.043200493,5.229337707
2.275969843,1.593931437,5.065198898,-2.204981327,5.749678248
2.280737239,2.387690544,5.528706551,-2.429335117,6.493791756
2.285503906,3.129650831,5.89777565,-2.640820503,7.180000339
2.290271302,3.408389568,6.022197723,-2.78875351,7.46063878
2.295039479,3.172534704,5.728100777,-2.830733061,7.133664179
2.299806875,2.61989975,4.973207474,-2.460393906,6.135976324
2.304573489,1.996046543,3.920764923,-1.73787725,4.730414011
2.309340937,1.338999033,2.781628609,-0.894898891,3.214221547
2.314109114,0.464767337,1.546640396,-0.130702376,1.620243285
2.31887651,-0.592732668,0.204489708,0.290028215,0.690843268
2.323643125,-1.60404551,-1.182012558,0.459529162,2.044818509
2.328410521,-2.290943623,-2.407073975,0.596069336,3.376051903
2.333178698,-2.105769157,-3.201298714,0.725815058,3.899921114
2.337946093,-1.304555416,-3.470228195,0.829458237,3.798993225
2.34271276,-0.99160707,-3.429959297,0.865995765,3.673942573
2.347480156,-1.003046751,-3.334430695,0.804021597,3.573651014
2.352248333,-0.677015603,-3.195918083,0.74117589,3.349863314
2.357015729,-0.241388083,-2.943432808,0.722494364,3.040405073
2.361782343,-1.117565393,-3.741948128,3.578424454,5.296815059
2.366549791,-0.91209352,-3.742083549,4.082690716,5.612794969
2.371317968,0.874186754,-2.419270515,0.94768858,2.741383948
2.376085364,1.646009922,-1.629752159,-0.34196949,2.341449102
2.380851979,1.888899684,-0.889298439,-1.210910678,2.413524062
2.385619375,1.920384407,-0.376654625,-1.865804672,2.703880924
2.390387552,2.019170284,-0.110490799,-2.220704079,3.003461912
2.395154948,2.098814011,-0.014023781,-2.193413973,3.035832962
2.399921614,2.030471802,-0.146988869,-1.757760882,2.689636553
2.40468901,1.888832688,-0.468566895,-1.109456778,2.240120131
2.409457187,1.903559208,-0.65374279,-0.575273275,2.093288474
2.414224583,1.860484242,-0.571650505,-0.037368774,1.946684962
2.418991198,1.577104688,-0.256554604,0.624061823,1.715381188
2.423758646,1.327257156,0.200110436,1.271201372,1.848677547
2.428526823,1.178368926,0.688122749,1.377980471,1.939303076
2.433294218,1.066164374,1.152514458,1.064972878,1.897146088
2.438060833,0.885839343,1.698621273,0.543851376,1.991431618
2.442828229,0.630594492,2.266457558,0.043911457,2.35295718
2.447596406,0.429743528,2.648020267,-0.038655043,2.682943356
2.452363854,0.257242918,2.917866707,-0.25855124,2.940572866
2.457130468,0.091810107,3.219861984,-0.896255612,3.343533223
2.461897864,-0.011701703,3.656880856,-1.519824028,3.960148936
2.466666041,-0.103847027,4.264735222,-1.927288175,4.681152681
2.471433437,-0.246827126,4.978765011,-2.163587093,5.434163576
2.476200052,-0.713486552,5.572138309,-1.994682312,5.961253721
2.4809675,-1.661651969,5.770868301,-1.919703484,6.304702188
2.485735677,-1.756156564,5.504263878,-2.392942905,6.253573575
2.490503073,-0.580851555,5.035961151,-2.941053391,5.860724212
2.495269687,0.843418717,4.836841583,-3.180203438,5.849793632
2.500037083,1.829018831,4.984992504,-3.007873297,6.102684812
2.50480526,2.247201681,5.240279198,-2.404608965,6.188100334
2.509572708,2.576836109,5.525605202,-1.647189617,6.31550717
2.514339323,2.937170267,5.706643581,-1.226706743,6.534336965
2.519106718,3.248535395,5.768672943,-1.062296987,6.705150604
2.523874896,3.638849258,5.942708015,-0.62759161,6.996490099
2.528642291,3.742766142,6.046018124,0.439177752,7.124290185
2.533408958,2.915457487,5.490932465,1.299208879,6.351234164
2.538176354,1.352619648,4.052442074,1.024246931,4.393284472
2.542944531,-0.275005341,2.237415314,0.198664188,2.262989766
2.547711927,-1.799290657,0.52312851,-0.652585864,1.984182103
2.552478541,-3.219924927,-0.874492645,-1.340327501,3.595710185
2.557245937,-4.316533566,-1.81361866,-1.629382968,4.957475519
2.562014166,-5.528882027,-2.56198597,-1.31689024,6.234300961
2.566781562,-6.610735893,-3.083267212,-0.677200675,7.325774123
2.571548177,-6.68551445,-3.480275154,-0.314769745,7.543705893
2.576315573,-5.902254105,-3.653235435,-0.30109942,6.947905693
2.58108375,-4.990711212,-3.500095367,-0.319229364,6.104078421
2.585851146,-4.100902557,-3.516727448,-0.08051765,5.402893375
2.590617812,-3.364404202,-3.612063408,0.522061706,4.963745171
2.595385208,-3.065162659,-3.623646736,1.50590229,4.979335247
2.600153385,-2.873569012,-3.666952133,2.405501366,5.243126322
2.604920781,-2.420543671,-3.613237381,2.705721378,5.122054686
2.609687396,-1.751682639,-3.590065002,2.627526522,4.781302585
2.614454843,-0.96752882,-3.808303833,2.475551605,4.644097959
2.619223021,-0.087101221,-4.129629135,2.541306973,4.849707676
2.623990416,0.604024887,-4.341320038,2.734380007,5.166114571
2.628757031,1.162742376,-4.393626213,2.73200655,5.302808777
2.633524427,1.765829086,-4.258146286,2.53022337,5.258516184
2.638292604,2.27922225,-3.944696426,2.041516066,4.992321284
2.643060052,2.7294631,-3.694637299,1.465958834,4.821757863
2.647826666,3.00244689,-3.636584282,0.993106842,4.819304282
2.652594062,2.889138222,-3.769871712,0.577424526,4.784607766
2.657362239,2.621995687,-3.991096497,0.102946281,4.776432829
2.662129635,2.732770443,-3.695570946,-0.923493981,4.688082768
2.666896302,2.853177786,-3.216356277,-1.588412523,4.58351672
2.671663698,2.450930834,-2.95012188,-1.597867846,4.154932335
2.676431875,1.933810472,-2.544808388,-1.85556674,3.69578146
2.681199271,1.419768095,-2.095586777,-2.533530712,3.581340985
2.685965885,0.868800163,-1.683383942,-3.250035286,3.761824634
2.690733281,0.437112331,-1.374872208,-3.417165756,3.709226683
2.69550151,0.144455671,-1.134063721,-3.134850979,3.336803654
2.700268906,-0.076038599,-0.92288971,-2.617844343,2.776799649
2.705035521,-0.117634296,-0.533985138,-2.114161015,2.183724971
2.709802916,0.020908594,0.117564201,-1.389434099,1.394555709
2.714571093,0.02587986,0.763014793,-0.429686189,0.876065958
2.719338489,-0.048295975,1.332486153,0.394824982,1.390589305
2.724105156,-0.018048286,1.868713856,0.97776413,2.109132501
2.728872552,-0.032038689,2.369120121,1.342374444,2.723183022
2.733640729,-0.159302712,2.785929203,1.598167896,3.215730011
2.738408125,-0.377764225,3.112112999,1.849606872,3.639917404
2.743174791,-0.641339541,3.379004955,2.041245461,3.999459204
2.747942187,-0.885051489,3.560558796,1.998718858,4.178010549
2.752710364,-1.170555949,3.659708023,1.599364877,4.161926483
2.75747776,-1.538098454,3.739147663,0.855056524,4.132565034
2.762244375,-1.915752649,3.856697559,-0.045066953,4.306536347
2.767011771,-2.262808561,4.017622471,-0.91868484,4.701656595
2.771779948,-2.448237419,4.15755415,-1.63978672,5.095882991
2.776547396,-2.498883009,4.250348091,-2.080966949,5.351663165
2.78131401,-2.489394188,4.351036549,-2.187294483,5.469264999
2.786081406,-2.274645567,4.380631447,-2.174075603,5.393565524
2.790849583,-1.803299546,4.341434479,-2.244353533,5.209324848
2.795617031,-1.329485774,4.245488167,-2.270748615,4.99479744
2.800383646,-0.920597792,3.980416775,-2.241229534,4.659863498
2.805151041,-0.512348414,3.591789246,-2.203545094,4.244886555
2.809919218,-0.150503635,3.168013573,-2.174829483,3.845626688
2.814686614,0.193284988,2.704035759,-2.041208267,3.393478991
2.819453281,0.583304167,2.216414452,-1.655259371,2.827122275
2.824220677,1.002556086,1.800294876,-1.034186125,2.305584804
2.828988854,1.417224646,1.541209221,-0.206510782,2.103924491
2.83375625,1.705242634,1.307057381,0.55025208,2.217888362
2.838522864,1.86142087,1.025922775,1.006639123,2.351749885
2.843290312,2.006421089,0.771551132,1.13196373,2.429477027
2.848058437,2.137091637,0.761300087,1.01406014,2.484966087
2.852825885,2.112075806,0.762868881,0.895718336,2.41767336
2.8575925,1.926478148,0.336390495,0.620312572,2.051649167
2.862359896,1.757637024,-0.395617485,0.230993152,1.816358703
2.867128073,1.61772418,-1.210282326,-0.076978028,2.021816126
2.871895468,1.581852436,-1.789524078,-0.06083101,2.389216183
2.876662135,1.49208045,-2.21697998,0.568434,2.732109353
2.881429531,0.964672327,-2.969956398,1.060617208,3.297899721
2.886197708,0.075428963,-3.716905594,1.073890924,3.869666451
2.890965104,-0.680297613,-3.950247765,1.169877052,4.175628643
2.895731771,-0.97187686,-3.854432106,1.435789347,4.226426687
2.900499166,-0.661594868,-3.790882111,1.784204602,4.241683747
2.905267343,-0.068991184,-3.809804916,2.076694965,4.339589297
2.910034739,0.675187588,-3.844340324,1.849058867,4.319010245
2.914801354,1.767525911,-3.859013557,1.342634916,4.451831309
2.91956875,2.886749268,-3.94965744,1.467668295,5.107559638
2.924336979,3.727133274,-4.199813843,2.113674879,5.999798351
2.929104375,4.363608837,-4.530143738,2.593990088,6.803827522
2.933870989,4.766383171,-4.868431091,2.975404501,7.434585514
2.938638385,4.698654175,-5.161270142,3.26086998,7.703851865
2.943406562,4.110141277,-5.328990936,2.896184683,7.326615278
2.94817401,3.300315619,-5.209051132,1.830282211,6.432435764
2.952940625,2.743616104,-4.67089653,0.568347454,5.446808474
2.957708021,2.614729881,-3.856920242,-0.353631884,4.673082667
2.962476198,2.586491108,-3.057434082,-0.714872599,4.068031741
2.967243593,2.36623764,-2.27525425,-0.505372047,3.321334578
2.97201026,1.834400892,-1.479485512,-0.314736366,2.377596053
2.976777656,0.946614742,-0.834936142,-0.35904181,1.312291451
2.981545833,0.009449482,-0.300806046,-0.409653008,0.508319935
2.986313229,-0.604733706,0.187346458,-0.581689,0.859746267
2.991079843,-0.989897728,0.555388451,-0.796263754,1.386502726
2.995847291,-1.283194542,0.860668182,-1.098621011,1.895865522
3.000615468,-1.473729134,1.122149467,-1.582967758,2.436572164
3.005382864,-1.416808367,1.270258904,-1.999833345,2.760477683
3.010149479,-1.232400894,1.266926765,-2.048075199,2.705277696
3.014916875,-1.2289536,1.162628174,-1.721200466,2.413412991
3.019685052,-1.463164806,1.000727654,-1.277653694,2.185110077
3.0244525,-1.788452029,0.838819504,-0.863684416,2.155952131
3.029219114,-1.994295716,0.731884956,-0.505633235,2.183697773
3.03398651,-2.026021957,0.660682678,-0.301258564,2.15221358
3.038754687,-1.979407072,0.610863686,-0.152281284,2.077112512
3.043522083,-1.866549373,0.589556694,-0.037065148,1.957794034
3.04828875,-1.692795396,0.596543312,0.044466615,1.795382259
3.053056146,-1.516029119,0.624438286,0.140099645,1.645568405
3.057824323,-1.338852167,0.661172867,0.249758363,1.513953079
3.062591718,-1.156575441,0.639787674,0.294734478,1.354202138
3.067358385,-0.983244419,0.591532707,0.317808271,1.190664784
3.072125781,-0.911334515,0.507143974,0.409541369,1.120468536
3.076893958,-0.923327684,0.398852348,0.423840344,1.091447592
3.081661354,-0.86820817,0.393547058,0.277708709,0.992867987
3.086427968,-0.695850611,0.440885544,0.148332238,0.837012896
3.091195364,-0.444696665,0.421246529,0.13114953,0.626421552
3.095963593,-0.258072138,0.346744537,0.103784859,0.444527052
3.100730989,-0.228702784,0.279778481,0.00903666,0.361472852
3.105497604,-0.241287708,0.19655323,-0.069366992,0.31884904
3.110265,-0.1784091,0.133002281,-0.100728214,0.244265402
3.115033177,0.012381315,0.024502754,-0.083066523,0.087485594
3.119800625,0.173361063,-0.217159271,-0.130525291,0.307000096
3.124567239,0.189950228,-0.448310852,-0.262077093,0.552944945
3.129334635,0.212849617,-0.563780785,-0.398107588,0.722248838
3.134102812,0.30625701,-0.59254837,-0.483516336,0.823829457
3.138870208,0.448188543,-0.611383438,-0.47774154,0.896046683
3.143636875,0.642923117,-0.622859955,-0.388097286,0.975666009
3.148404271,0.780217886,-0.655804634,-0.215211451,1.041698438
3.153172448,0.762341976,-0.717277527,-0.059490263,1.048423307
3.157939843,0.596951246,-0.713882446,-0.018647909,0.930766717
3.162706458,0.399048328,-0.636136055,-0.01592648,0.751107384
3.167473906,0.247630596,-0.534310341,0.003849387,0.588917032
3.172242083,0.163960218,-0.403713226,-0.035702229,0.437197863
3.177009479,0.181177139,-0.258798599,-0.112805009,0.335450206
3.181776093,0.182091475,-0.132984161,-0.153068066,0.27252876
3.186543489,0.133165836,-0.01913166,-0.156757653,0.206572317
3.191311718,0.132463932,0.111445427,-0.190937877,0.257728635
3.196079114,0.139158011,0.215637207,-0.243735969,0.353937254
3.200845729,0.117230892,0.252776146,-0.293724358,0.404861533
3.205613125,0.028271675,0.275454521,-0.364992082,0.458141573
3.210381302,-0.079965115,0.297934532,-0.367054284,0.479466633
3.21514875,-0.183541775,0.303430557,-0.324335694,0.480573958
3.219915364,-0.339705467,0.292016983,-0.382712305,0.589187942
3.22468276,-0.593244076,0.326030731,-0.398900449,0.785720141
3.229450937,-0.914382935,0.405641556,-0.113098979,1.006693897
3.234218333,-1.087035418,0.473718643,0.225786805,1.207077062
3.238985,-1.034566641,0.544805527,0.247741103,1.195205777
3.243752396,-0.840858698,0.616593361,0.149748802,1.053401835
3.248520573,-0.580057144,0.612731934,0.045110106,0.84495067
3.253287968,-0.362099409,0.499975205,-0.168312311,0.639859532
3.258054583,-0.149055958,0.354946137,-0.439333797,0.584139216
3.262822031,0.1393044,0.239537239,-0.643083632,0.700243074
3.267590208,0.301320553,0.151081085,-0.705399156,0.781797633
3.272357604,0.254901409,0.086872101,-0.676296949,0.727941656
3.277124218,0.252350092,0.067997932,-0.569846034,0.626920083
3.281891614,0.256635428,0.051096916,-0.478873849,0.54570395
3.286659843,0.199953795,0.019172668,-0.403422117,0.450664527
3.291427239,0.260754585,-0.040041924,-0.238724113,0.355788577
3.296193854,0.426759481,-0.145882607,0.023048639,0.451593434
3.30096125,0.566705942,-0.324560165,0.24940598,0.699069574
3.305729427,0.626668215,-0.604459763,0.243399501,0.90406193
3.310496823,0.653361559,-0.901492119,0.047626615,1.114377701
3.315263489,0.731396914,-1.13419342,-0.130596519,1.355873007
3.320030885,0.942533732,-1.328896523,-0.177396774,1.638842707
3.324799062,1.215191603,-1.492763519,-0.162657499,1.931706763
3.329566458,1.398661852,-1.575663567,-0.167922854,2.113567774
3.334333125,1.547966957,-1.549046516,-0.128560185,2.193689707
3.339100521,1.667996645,-1.453735352,-0.006678343,2.212601157
3.343868698,1.673120737,-1.397391319,0.235171318,2.192564947
3.348636093,1.554478407,-1.365502357,0.472206593,2.122257965
3.353402708,1.274565458,-1.295723915,0.510801077,1.887944732
3.358170156,0.896284342,-1.214297295,0.453916311,1.576034124
3.362938333,0.668578625,-1.142807007,0.499676228,1.415161321
3.367705729,0.686617136,-1.045577049,0.683313727,1.425339296
3.372472343,0.825473785,-1.042370796,0.844195843,1.574995387
3.377239739,0.927407265,-1.360199928,0.826864123,1.842262836
3.382007916,0.825597763,-1.917222023,0.682109714,2.196047726
3.386775364,0.482305765,-2.371196747,0.539596438,2.479184781
3.391541979,0.158193827,-2.519225121,0.483141065,2.570008907
3.396309375,0.192059994,-2.316701889,0.595895886,2.399809699
3.401077552,0.44166112,-1.948590279,0.741107583,2.131034741
3.405844948,0.685999155,-1.568458557,0.634379506,1.825676435
3.410611614,0.931763649,-1.167085648,0.366754174,1.537784455
3.41537901,1.066380262,-0.735243797,0.287099838,1.326716482
3.420147187,1.11325717,-0.218326569,0.309232712,1.175854109
3.424914583,1.157930851,0.299620628,0.244673491,1.220836391
3.42968125,1.223943472,0.687052727,0.041880846,1.40421974
3.434448646,1.194069862,0.944211006,-0.058992624,1.523422919
3.439216823,1.132559299,1.248295784,-0.047226667,1.686168227
3.443984218,1.170338869,1.594690323,-0.145983458,1.983441823
3.448750885,1.206232071,1.866557121,-0.279083014,2.239847902
3.453518281,1.122740507,2.109946728,-0.372896195,2.418981813
3.458286458,0.824195623,2.299247742,-0.42802906,2.479727299
3.463053854,0.332627058,2.497646809,-0.600201368,2.590197294
3.467820468,-0.265412092,2.758666515,-0.956749916,2.931902953
3.472587864,-0.832828283,3.044820786,-1.381595969,3.4457719
3.477356093,-1.30868125,3.215745449,-1.563609838,3.80769499
3.482123489,-1.622018337,3.097667217,-1.513192058,3.810017832
3.486890104,-1.78553009,2.684022427,-1.117438793,3.41185632
3.4916575,-1.824172497,2.039700508,-0.321299076,2.755216245
3.496425677,-1.579253197,1.26264143,0.590395927,2.106388234
3.501193125,-0.909337878,0.326164246,1.514872313,1.796696027
3.505959739,-0.113343239,-0.755517006,2.156670809,2.287986367
3.510727135,0.325945139,-1.690633774,2.283686161,2.860018404
3.515495312,0.371620417,-2.20681572,2.106364965,3.073257347
3.520262708,0.257482529,-2.290472031,2.015784502,3.062016743
3.525029375,0.102445602,-2.055083275,2.224763155,3.030418034
3.529796771,-0.02798152,-1.700155258,2.482445717,3.008961217
3.534564948,0.021060705,-1.341154099,2.236094952,2.607538782
3.539332343,0.247745991,-0.930883408,1.453223705,1.743496812
3.54409901,0.527783632,-0.446339607,0.598529816,0.914337218
3.548866406,0.834528923,0.135629654,-0.257727861,0.883887763
3.553634583,1.007463217,0.690027237,-1.028569221,1.596582088
3.558401979,0.960933685,1.104205132,-1.548252583,2.130668576
3.563168593,0.771951437,1.473713875,-2.012325525,2.610975991
3.567936041,0.66120553,1.829542637,-2.546812534,3.204789088
3.572704218,0.536867619,2.074094772,-2.935221434,3.633953884
3.577471614,0.118298531,2.136113167,-3.157637596,3.814138067
3.582238229,-0.489082933,1.994763374,-3.294807434,3.882529982
3.587005625,-1.210002184,1.624437332,-3.136265039,3.7335051
3.591773802,-1.993183374,1.078125,-2.618228674,3.462694741
3.59654125,-2.448030949,0.484847069,-1.854504108,3.109198883
3.601307864,-2.521315575,-0.081620216,-1.009115696,2.7169852
3.60607526,-2.496951103,-0.559357643,-0.338708401,2.581156556
3.610843437,-2.4473176,-0.84523201,0.078101635,2.590343694
3.615610885,-2.316266537,-0.90545845,0.235008717,2.498034181
3.6203775,-1.981907845,-0.809199333,0.188151836,2.148991247
3.625144896,-1.454568863,-0.635086536,0.089401722,1.589684923
3.629913073,-0.806342244,-0.440253735,0.039801121,0.919562556
3.634680468,-0.238198757,-0.281558991,0.025675297,0.369693568
3.639447135,0.165578365,-0.21600914,-0.20819664,0.342668914
3.644214531,0.469355583,-0.279158592,-0.395831585,0.67446781
3.648982708,0.69511652,-0.382218838,-0.264778614,0.836292969
3.653750104,0.860212088,-0.417227268,-0.145309448,0.967035814
3.658516718,0.874439478,-0.405230045,-0.228313446,0.990445768
3.663284166,0.621219635,-0.367264748,-0.450967789,0.850981302
3.668052343,0.204346657,-0.350829125,-0.602660656,0.726662574
3.672819739,-0.122145891,-0.375049114,-0.557111263,0.682608538
3.677586354,-0.255199909,-0.397188664,-0.375061989,0.602957149
3.682353802,-0.163386345,-0.395989895,-0.162537098,0.458171805
3.687121979,-0.006813765,-0.383438587,-0.034564018,0.385053566
3.691889375,0.081086874,-0.428587914,-0.043555737,0.438360335
3.696655989,-0.144555092,-0.664747238,0.004374981,0.680297145
3.701423385,-0.431748152,-0.94781208,0.116528034,1.048013831
3.706191614,-0.371704221,-1.059926033,0.118525982,1.12944926
3.71095901,-0.252412081,-0.998826504,0.14946413,1.041011897
3.715725625,-0.280393601,-0.788908958,0.3096838,0.892693661
3.720493021,-0.377827406,-0.538378716,0.477013588,0.812494402
3.725261198,-0.326805592,-0.351011276,0.6152668,0.780105151
3.730028593,-0.140260696,-0.204016209,0.702632904,0.74497562
3.73479526,-0.094894886,-0.107755184,0.690868378,0.70563116
3.739562656,-0.221576929,-0.167849541,0.65124464,0.708088544
3.744330833,-0.280527949,-0.267029285,0.530916691,0.657170528
3.749098229,-0.32572639,-0.259239674,0.39912796,0.576720052
3.753864896,-0.384901524,-0.15598011,0.213161469,0.466815584
3.758632291,-0.3684237,-0.00444603,-0.086275578,0.378416788
3.763400468,-0.249677301,0.136140347,-0.355088711,0.4549296
3.768167864,-0.064252734,0.201673031,-0.511721611,0.553768392
3.772934479,0.142562747,0.159165859,-0.560799599,0.600128401
3.777701927,0.375873327,0.035233974,-0.586101055,0.697163279
3.782470104,0.559281588,-0.134133339,-0.547059059,0.793763983
3.7872375,0.609470248,-0.30103159,-0.422318935,0.800267008
3.792004114,0.553218484,-0.439133167,-0.312487125,0.77235797
3.796771562,0.498252749,-0.539008141,-0.270251274,0.782190085
3.801539739,0.422762752,-0.586483002,-0.288402081,0.778374213
3.806307135,0.314167261,-0.546111584,-0.285741329,0.691799853
3.81107375,0.196032286,-0.447061539,-0.2458148,0.546550631
3.815841146,0.079785109,-0.325519562,-0.247677326,0.416740575
3.820609375,-0.021074414,-0.206005096,-0.298802376,0.36354517
3.825376771,-0.056578755,-0.076991558,-0.241695404,0.259895217
3.830143385,-0.053031802,0.118833542,-0.153096676,0.200928781
3.834910781,-0.063084364,0.314304829,-0.155130863,0.356135855
3.839678958,-0.074784875,0.461629391,-0.173529625,0.498805576
3.844446354,-0.083370924,0.563184261,-0.189218998,0.599942541
3.849213021,-0.062424302,0.604763508,-0.199760914,0.639953214
3.853980416,-0.004808545,0.584107399,-0.240971565,0.631879633
3.858748593,0.089348912,0.515792847,-0.315029621,0.610957569
3.863515989,0.186386466,0.368674755,-0.376543999,0.558969027
3.868282656,0.269941449,0.147684097,-0.389711857,0.496542355
3.873050052,0.335924983,-0.092078209,-0.342802525,0.4887101
3.877818229,0.394579887,-0.28610611,-0.245709419,0.545823334
3.882585625,0.446395278,-0.415404797,-0.153695107,0.628849803
3.887352291,0.46296525,-0.477751732,-0.112350464,0.674689682
3.892119687,0.420880199,-0.470912457,-0.095511436,0.638765307
3.896887864,0.35397017,-0.423590183,-0.136623383,0.568673433
3.90165526,0.325912118,-0.341002464,-0.164021015,0.499403927
3.906421875,0.316756129,-0.218647957,-0.16101265,0.417212713
3.911189323,0.275870442,-0.085347176,-0.199337959,0.350890672
3.9159575,0.224399686,0.080449104,-0.269224644,0.359595865
3.920724896,0.219408393,0.288424015,-0.358421326,0.509700208
3.92549151,0.201043129,0.519640446,-0.45230341,0.717650965
3.930258958,0.152581573,0.762553692,-0.519334316,0.935134964
3.935027135,0.171577334,0.984114647,-0.587645531,1.15898563
3.939794531,0.209249139,1.101452351,-0.790091515,1.371578319
3.944561146,0.243494153,1.154080868,-1.012813568,1.554665036
3.949328541,0.340704203,1.191308498,-1.203959942,1.727661666
3.954096771,0.428275228,1.15212965,-1.481669426,1.925140693
3.958864166,0.407837629,1.061989784,-1.870442867,2.189225971
3.963630781,0.256170511,0.919209957,-2.051412582,2.262490632
3.968398177,0.104622364,0.721486092,-1.771718025,1.915847797
3.973166354,0.057500124,0.489973068,-1.341016293,1.42888228
3.97793375,0.040996552,0.286365986,-0.877044678,0.923522367
3.982700416,0.095366955,0.159675598,-0.454787254,0.491347738
3.987467812,0.122067213,0.045798302,-0.264397144,0.294794401
3.992235989,0.01255703,-0.04118681,-0.374431133,0.376898801
3.997003385,-0.130004406,-0.03672123,-0.611863136,0.626598829
4.001770052,-0.389455319,0.075340748,-0.648849487,0.760498081
4.006537448,-0.484212875,0.287707806,-0.644888878,0.85622401
4.011305625,-0.376987696,0.472784996,-0.728981018,0.947131828
4.016073021,-0.374216557,0.564002514,-0.892455101,1.120095074
4.020839687,-0.478883028,0.599018097,-1.008021355,1.266593339
4.025607083,-0.425914288,0.641005516,-1.119346142,1.358391268
4.03037526,-0.259503126,0.630017757,-1.42336607,1.578047913
4.035142656,-0.149534702,0.419275761,-1.6375947,1.697017735
4.039909271,-0.028321981,0.149148941,-1.61166501,1.618799446
4.044676718,0.1155231,-0.054833412,-1.431034327,1.436736418
4.049444896,0.426696301,-0.231216431,-1.179151058,1.275118814
4.054212291,0.708708048,-0.481643677,-0.939451695,1.271541275
4.058978906,0.739036322,-0.78920269,-0.84598279,1.372844657
4.063746302,0.613318205,-1.030078888,-0.81892705,1.451848218
4.068514531,0.515598297,-1.16119957,-0.679539442,1.440833057
4.073281927,0.581165075,-1.164311409,-0.377802849,1.355030957
4.078048541,0.752246857,-1.073404312,0.018318176,1.310880508
4.082815937,0.84378767,-0.876946449,0.562546969,1.340698251
4.087584114,0.98748374,-0.524914742,0.870152235,1.416977253
4.092351562,1.081090212,-0.127326965,1.103810072,1.550278968
4.097118177,0.538416863,0.387794495,1.341440678,1.496576219
4.101885573,0.453698397,1.065653324,1.06357038,1.572463416
4.10665375,0.623188973,1.631637573,0.726715326,1.891750732
4.111421198,0.02776432,2.174151897,0.744441509,2.298238563
4.116187812,-0.403239965,2.795419693,1.593284011,3.242765435
4.120955208,-0.405162096,3.478730679,1.998353243,4.032262286
4.125723385,-0.348947525,4.020938873,1.646883965,4.359121539
4.130490781,-0.249038458,4.130455494,1.749444962,4.492576145
4.135257448,0.115640163,3.950789452,1.639148474,4.278892106
4.140024843,0.757763863,3.567767143,0.975606322,3.775576268
4.144793021,1.3573246,3.03669405,0.100675643,3.327758466
4.149560416,1.634632349,2.508947849,-0.894810498,3.125304474
4.154327083,1.69615674,1.903862,-1.577354312,2.998280311
4.159094479,1.648868084,1.193653584,-1.518176198,2.539376657
4.163862656,1.554464817,0.549153328,-1.162471771,2.017243382
4.168630052,1.392616749,0.030658722,-0.859670579,1.636873505
4.173396718,0.780139685,-0.332374573,-0.970024884,1.288425031
4.178164114,-0.820762634,-0.500897408,-2.272573471,2.467618223
4.182932291,-1.865830421,-0.429437637,-3.134966373,3.673384544
4.187699687,-0.448139429,-0.168888092,-1.733030081,1.797983703
4.192466302,1.550122738,0.242110252,0.375964373,1.613334152
4.19723375,2.578917742,0.505916596,2.461266756,3.600639161
4.202001927,3.393183708,0.18115139,3.742794991,5.055197904
4.206769323,4.042441368,-0.713518143,3.277117968,5.252612924
4.211535937,4.243480206,-1.938688278,2.192300797,5.154786055
4.216303385,3.828853607,-3.122655869,1.406917334,5.137170038
4.221071562,2.472148895,-3.747021675,1.190175056,4.644158509
4.225838958,0.738494158,-3.81065464,0.893911898,3.983157151
4.230605573,-0.436655283,-3.66706562,0.38199535,3.71267539
4.235372968,-0.94564414,-3.397397995,0.078313112,3.527419584
4.240141146,-1.14480567,-2.843597412,-0.246858224,3.075315471
4.244908593,-1.335041285,-1.883713722,-0.476955771,2.357583387
4.249675208,-1.47031498,-0.709317207,-0.317321748,1.663024393
4.254442604,-1.591337204,0.155636787,0.062885195,1.600166071
4.259210781,-1.629129887,0.744832039,0.332557857,1.821931305
4.263978229,-1.57926631,1.321490288,0.606170535,2.146592969
4.268744843,-1.556849718,1.667906761,0.950491309,2.471664973
4.273512239,-1.56439805,1.851136208,1.314081907,2.75696532
4.278280416,-1.66380477,2.179797649,1.87518096,3.322057756
4.283047812,-1.930962205,2.735089302,2.324649334,4.075944437
4.287814479,-2.109662056,3.225051403,2.205155611,4.440083537
4.292581875,-1.914113164,3.491601467,1.627839327,4.301740448
4.297350052,-1.47325778,3.575248241,0.801300883,3.94904692
4.302117448,-1.056853533,3.619171143,0.048256695,3.770632289
4.306884114,-0.756644249,3.740181446,-0.062966168,3.816468591
4.31165151,-0.663603544,3.935492992,0.416613221,4.012734894
4.316419687,-0.743817329,4.082938671,0.962895572,4.260377952
4.321187083,-0.791176081,4.13469696,1.583947539,4.49784041
4.32595375,-0.65770793,4.145550251,2.263159275,4.768653532
4.330721146,-0.363319397,3.993201256,2.879398346,4.936455417
4.335489323,-0.009521008,3.536349773,3.236107111,4.793563351
4.340256718,0.340584278,2.81812048,3.08311367,4.190869909
4.345023333,0.883350611,1.888559341,2.466461658,3.229612639
4.349790781,1.606908798,0.659277916,1.400418758,2.231137816
4.354558958,2.212539196,-1.087229729,-0.090809107,2.466909903
4.359326354,3.203949928,-3.6161623,-1.686962366,5.117398455
4.364092968,4.659203529,-6.482445717,-2.485920906,8.361224955
4.368860416,5.28758049,-8.924766541,-2.270658493,10.61912686
4.373628593,4.267466068,-11.31031609,-2.068118095,12.26424189
4.378395989,2.366755486,-13.61362171,-1.793328047,13.93370924
4.383162604,0.366279841,-14.61400032,-0.870071054,14.64445936
4.38793,-1.55104363,-13.81240845,-0.13980037,13.89992473
4.392698229,-2.26490736,-10.95083714,-0.257381797,11.18556591
4.397465625,-1.526071787,-6.886395454,-0.898803592,7.110498249
4.402232239,-0.75806284,-3.30450058,-1.231994629,3.607241899
4.406999635,-0.584281683,-0.701732636,-1.042288899,1.38570557
4.411767812,-0.401780844,1.099841118,-0.797329068,1.416619912
4.41653526,0.267754078,2.490026474,-0.707161188,2.602306868
4.421301875,0.806460381,3.251500607,-0.541085482,3.393436022
4.426069271,0.884954691,3.244069576,-0.051060736,3.362995602
4.430837448,0.905298233,2.97076273,0.41084981,3.132697504
4.435604896,0.896351099,2.706947803,0.531568587,2.900616635
4.44037151,0.855913162,2.433561802,0.479114234,2.623806554
4.445138906,0.812766552,2.023969173,0.299833,2.201576824
4.449907083,0.688183546,1.342159271,-0.206174463,1.522332425
4.454674531,0.525344849,0.531986237,-0.860929847,1.14026171
4.459441146,0.381635428,-0.150636673,-1.227668047,1.294413319
4.464208541,0.32094717,-0.636818886,-1.143283606,1.347457896
4.468976718,0.339843273,-0.977395058,-0.694092214,1.246017075
4.473744114,0.295937061,-1.239905357,-0.03285563,1.275156277
4.478510781,0.212224722,-1.494089127,0.554447532,1.607716927
4.483278177,0.019217491,-1.582181931,0.91923523,1.829935075
4.488046354,-0.282585621,-1.45882225,1.016406059,1.800305049
4.49281375,-0.541378975,-1.23153019,0.885320306,1.6104502
4.497580364,-0.708267689,-0.94069767,0.675749779,1.357642438
4.502347812,-0.684545279,-0.684103966,0.332504273,1.023308148
4.507115989,-0.579880238,-0.406394959,-0.134168923,0.720707466
4.511883385,-0.432667971,-0.069167137,-0.630090952,0.767463532
4.51665,-0.183403492,0.241493225,-0.99029845,1.035686651
4.521417448,0.034398317,0.391932488,-0.960208476,1.037687157
4.526185625,0.148072243,0.301422119,-0.481060326,0.586685367
4.530953021,0.288079739,-0.019975662,0.460735053,0.543751553
4.535719635,0.640842676,-0.450212479,1.428619146,1.629209402
4.540487083,0.93791008,-0.898526192,1.893966913,2.296548563
4.54525526,0.868256331,-1.228727341,1.769920588,2.322984894
4.550022656,0.616038084,-1.288070679,1.264569402,1.907292522
4.554789271,0.374732018,-1.136800766,0.79425776,1.436518519
4.559556666,0.134429693,-0.847005844,0.54768455,1.017569953
4.564324896,-0.109945536,-0.478725433,0.507707238,0.706422466
4.569092291,-0.296576738,-0.101498604,0.514011264,0.602052579
4.573858906,-0.406852961,0.229559898,0.399759501,0.614845295
4.578626302,-0.436449289,0.473773003,0.223123133,0.681713116
4.583394531,-0.442886591,0.576265335,0.082802683,0.731496106
4.588161927,-0.466724157,0.551609039,-0.00408715,0.722579183
4.592928541,-0.405673504,0.507406235,-0.042153776,0.651006159
4.597695937,-0.232125282,0.555776596,-0.026464641,0.602884855
4.602464114,-0.261506319,0.589105606,0.028685182,0.645177348
4.607231562,-0.557543278,0.595632553,0.089987218,0.820810785
4.611998177,-0.789485931,0.620967865,0.045484662,1.005464062
4.616765573,-0.887520909,0.528971672,-0.066140085,1.035315848
4.62153375,-0.851615548,0.398771286,-0.124979436,0.948623972
4.626301146,-0.744036913,0.323700905,-0.140477121,0.823472541
4.631067812,-0.712708712,0.215363503,-0.150633127,0.759621935
4.635835208,-0.67378068,0.100156784,-0.195633769,0.708720225
4.640603385,-0.586785793,0.016332626,-0.246301085,0.63659135
4.645370781,-0.509290695,-0.09115696,-0.273689479,0.585314048
4.650137448,-0.458199978,-0.195995331,-0.25588733,0.56021399
4.654904843,-0.405164719,-0.334094048,-0.28288278,0.596489689
4.659673021,-0.395436764,-0.536383629,-0.382591724,0.768410085
4.664440416,-0.542776823,-0.63275528,-0.285218418,0.881099012
4.669207083,-0.583668232,-0.599382401,-0.032299578,0.837240186
4.673974479,-0.370364428,-0.525007248,0.048424006,0.644319256
4.678742656,-0.21417141,-0.457568169,7.39098E-06,0.505210869
4.683510052,-0.188903332,-0.413752556,-0.034370303,0.456132617
4.688276718,-0.153339386,-0.343370438,0.004437268,0.376079665
4.693044114,-0.06936717,-0.227426529,0.065339446,0.246584415
4.697812291,0.031518221,-0.135469437,0.080670595,0.160789028
4.702579687,0.113237143,-0.062778473,0.076262057,0.150265393
4.707346354,0.168402195,-0.002263069,0.058726907,0.178362749
4.71211375,0.184807062,0.043587685,0.032404542,0.192622924
4.716881927,0.176813126,0.069989204,-0.007707417,0.190317562
4.721649323,0.170804739,0.050673485,-0.064141154,0.189357198
4.726415937,0.140771866,0.000126839,-0.10117206,0.173356627
4.731183385,0.122869015,-0.052848816,-0.128501654,0.185479021
4.735951562,0.174513578,-0.084322929,-0.14850083,0.244167651
4.740718958,0.223849773,-0.106290817,-0.137279928,0.283288259
4.745485573,0.215847015,-0.133115768,-0.11621812,0.278955898
4.750252968,0.181655407,-0.171961784,-0.101869345,0.270086848
4.755021198,0.15003109,-0.220411301,-0.067830503,0.275120785
4.759788593,0.106657505,-0.264087677,-0.040229082,0.287639538
4.764555208,0.0682621,-0.300602913,-0.047468305,0.311889509
4.769322604,0.056431055,-0.301297188,0.039040625,0.309012346
4.774090833,0.018725395,-0.282920837,0.187850833,0.340121708
4.778858229,0.040979624,-0.274208069,0.086674333,0.290485515
4.783624843,0.130097628,-0.275141716,-0.148418129,0.338609358
4.788392239,0.178402424,-0.252203941,-0.208452225,0.372674902
4.793160416,0.20280385,-0.188642502,-0.115104139,0.299940591
4.797927864,0.231970787,-0.101248741,-0.002294064,0.253114631
4.802694479,0.246763706,0.002783775,0.075032651,0.257934051
4.807461875,0.256710053,0.082767487,0.147992134,0.307655944
4.812230052,0.30730629,0.14593792,0.209511697,0.399537462
4.8169975,0.386610031,0.192354202,0.240650833,0.494348337
4.821764114,0.444418907,0.224431992,0.305876911,0.58432745
4.82653151,0.49743247,0.266098976,0.355070531,0.666575435
4.831299687,0.54314065,0.300593376,0.371755242,0.723574532
4.836067083,0.579141855,0.323155403,0.372861922,0.760828966
4.84083375,0.600715876,0.338616371,0.348979473,0.772856573
4.845601146,0.581666708,0.337446213,0.362268269,0.763835326
4.850369323,0.55088377,0.336461067,0.372125506,0.745088163
4.855136718,0.522823811,0.330934525,0.352442503,0.712094175
4.859903385,0.490372896,0.308941841,0.343969882,0.673962846
4.864670781,0.448912859,0.287283897,0.329868615,0.626791908
4.869438958,0.419990778,0.28269577,0.312440395,0.59491861
4.874206354,0.403438091,0.302276611,0.294020712,0.583593714
4.878973021,0.375221729,0.322041512,0.291202724,0.573847635
4.883740416,0.349555016,0.339522362,0.270202935,0.557201731
4.888508593,0.333444357,0.369005203,0.23808068,0.551391322
4.893275989,0.331522226,0.393656731,0.223157942,0.560956393
4.898042656,0.32221961,0.401494026,0.208444715,0.555402673
4.902810052,0.30075407,0.387726784,0.20801878,0.53296987
4.907578229,0.300659657,0.371504784,0.219284356,0.52583045
4.912345625,0.309964657,0.357602119,0.225318313,0.52414283
4.917112239,0.304706574,0.326851845,0.228331626,0.501810278
4.921879687,0.289790154,0.284082413,0.244973481,0.474018097
4.926647864,0.289227486,0.255632401,0.265609562,0.468560458
4.93141526,0.274310112,0.219958305,0.290191412,0.455893353
4.936181875,0.252310515,0.169933319,0.292521656,0.42202707
4.940949323,0.237654448,0.119961739,0.277606905,0.384624555
4.9457175,0.216128349,0.062902451,0.274089932,0.354673755
4.950484896,0.204578161,-0.010748863,0.274972558,0.342896004
4.95525151,0.18742013,-0.088335991,0.26656419,0.337618157
4.960018958,0.156838417,-0.160341263,0.255738139,0.340161146
4.964787135,0.143868923,-0.231513023,0.249916792,0.369803934
4.969554531,0.13645792,-0.266261101,0.234808803,0.380330003
4.974321146,0.136870384,-0.269639969,0.243860841,0.38846792
4.979088541,0.163983107,-0.241927147,0.274493814,0.400956428
4.983856771,0.191401959,-0.190523148,0.314665556,0.414666362
4.988624166,0.242808342,-0.113280296,0.378432512,0.463680367
4.993390781,0.308366299,-0.00809288,0.446478009,0.54267659
4.998158177,0.371179104,0.086779594,0.499848008,0.62861169
5.002926354,0.452413082,0.171367645,0.538729429,0.724067583
5.007693802,0.52560997,0.238573074,0.553706169,0.799858409
5.012460416,0.571870089,0.264795303,0.566210747,0.847199245
5.017227812,0.586519957,0.276457787,0.597699404,0.881861182
5.021995989,0.59591651,0.287928581,0.61963582,0.906624456
5.026763437,0.588156939,0.292061806,0.620151877,0.903225904
5.031530052,0.53506422,0.305585861,0.620805979,0.874686516
5.036297448,0.477318049,0.345036507,0.624040604,0.858084719
5.041065625,0.426833868,0.386443138,0.641607285,0.86208199
5.045833021,0.362261057,0.422674179,0.666119218,0.868102153
5.050599687,0.293174028,0.439515114,0.680886746,0.861818604
5.055367083,0.252844334,0.451370239,0.688334346,0.861086245
5.06013526,0.221981764,0.444009781,0.683727861,0.844928622
5.064902656,0.089302301,0.417702675,0.66476965,0.790170306
5.069669323,-0.058863878,0.4129982,0.58906889,0.721827282
5.074436718,-0.291230917,0.394130707,0.443078995,0.660661378
5.079204896,-0.604921341,0.380169869,0.398467422,0.818067995
5.083972291,-0.747763753,0.454120636,0.399749398,0.961860574
5.088738958,-0.811108351,0.553560257,0.415309787,1.066211955
5.093506354,-0.752791643,0.628394127,0.527701378,1.113572261
5.098274531,-0.60704422,0.674041748,0.638418436,1.109239858
5.103041927,-0.528992176,0.683592796,0.692810655,1.10775378
5.107808593,-0.525279522,0.676318169,0.662863612,1.082918746
5.112575989,-0.604615212,0.652420044,0.580286861,1.062047225
5.117344166,-0.697501302,0.619163513,0.464663267,1.042009344
5.122111562,-0.699599385,0.576561928,0.363740206,0.976816203
5.126878229,-0.628449798,0.531764031,0.315374017,0.881579777
5.131645625,-0.600954056,0.48714447,0.304646373,0.831423433
5.136413802,-0.623741508,0.43086338,0.309842944,0.818962375
5.141181198,-0.689116478,0.386789322,0.318879962,0.852157221
5.145947812,-0.805907726,0.359648705,0.296097517,0.930864219
5.15071526,-0.933204055,0.330338478,0.260762692,1.023714071
5.155483437,-1.056497693,0.313166618,0.231985331,1.12608965
5.160250833,-1.173296332,0.30569458,0.202591538,1.229274905
5.1650175,-1.26925981,0.30788517,0.186897278,1.319372706
5.169784896,-1.342054725,0.314937592,0.15154314,1.386817181
5.174553073,-1.410760045,0.33633709,0.087271333,1.452922169
5.179320468,-1.480318308,0.386165619,0.04184556,1.530430406
5.184087135,-1.510317683,0.440425873,0.029206157,1.573495298
5.188854531,-1.564420819,0.471547127,0.044629097,1.634552217
5.193622708,-1.610541582,0.502644539,0.035199881,1.68752326
5.198390104,-1.589325666,0.545592308,-0.053827286,1.681227057
5.203156718,-1.556070566,0.550094605,-0.143481731,1.656667344
5.207924166,-1.501571417,0.520894051,-0.164402962,1.59783468
5.212692343,-1.4213202,0.48187542,-0.207564592,1.515070325
5.217459739,-1.358618855,0.41145134,-0.222829342,1.436937826
5.222226354,-1.239658237,0.300017357,-0.195860148,1.290396898
5.22699375,-1.052797198,0.140402794,-0.270076156,1.095917887
5.231761979,-0.862995029,-0.050662041,-0.349641681,0.932510786
5.236529375,-0.646561623,-0.246863365,-0.424829364,0.812073544
5.241295989,-0.429936409,-0.452998161,-0.507572651,0.80478733
5.246063385,-0.244098425,-0.652309418,-0.550127387,0.88754254
5.250831614,-0.083941698,-0.856674194,-0.590711236,1.043971574
5.25559901,0.057886362,-1.039712906,-0.688861549,1.248552759
5.260365625,0.226852417,-1.182290077,-0.844341993,1.470437094
5.265133021,0.373023987,-1.305862427,-1.009034514,1.691914367
5.26990125,0.508532286,-1.407993317,-1.180367112,1.906388414
5.274668646,0.669269323,-1.483894348,-1.372514725,2.129239426
5.27943526,0.788480759,-1.523910522,-1.56599915,2.323006355
5.284202656,0.845013857,-1.516019821,-1.731965899,2.451952364
5.288970833,0.967867374,-1.398165703,-1.82985723,2.498001615
5.293738281,1.25921464,-1.125190735,-1.842996597,2.499662408
5.298504896,1.727405071,-0.764417648,-1.945649147,2.711791516
5.303272291,2.154126167,-0.497648239,-2.282762527,3.177879493
5.308040468,2.369698524,-0.37245369,-2.645371914,3.57102022
5.312807916,2.448869467,-0.292917252,-2.768013954,3.707379591
5.317574531,2.489997625,-0.163323402,-2.670204639,3.654689525
5.322341927,2.686614275,0.094988823,-2.458014488,3.642630144
5.327110104,2.942677736,0.457598686,-1.924933791,3.546000411
5.331877552,3.152449131,0.837915421,-1.177700758,3.467998969
5.336644166,3.296788931,1.159107208,-0.464051247,3.525292943
5.341411562,3.559705973,1.377937794,0.263041735,3.826148211
5.346179739,3.829209805,1.439579964,0.737866044,4.156883989
5.350947135,3.800226927,1.327699184,1.027532339,4.154555635
5.355713802,3.57023406,1.143311501,1.285224557,3.963020892
5.360481198,3.134071827,0.920577049,1.415727258,3.560077526
5.365249375,2.591593504,0.636193276,1.438682556,3.03165075
5.370016771,2.156848669,0.369549751,1.485897541,2.645081228
5.374783437,1.85661459,0.130505562,1.567307472,2.433208201
5.379550833,1.690886259,-0.090409279,1.673499823,2.380729265
5.38431901,1.599620819,-0.30506134,1.769078732,2.404472654
5.389086406,1.49117136,-0.520610809,1.601536989,2.249343986
5.393853073,1.364585638,-0.679673195,1.193923235,1.936363165
5.398620468,1.214261055,-0.858880043,0.76736331,1.67360428
5.403388646,0.994422674,-1.125107765,0.408527374,1.556161481
5.408156041,0.616497278,-1.411200523,0.091573477,1.542705906
5.412922708,0.1523242,-1.628561974,-0.19271493,1.646983852
5.417690104,-0.326280356,-1.731744766,-0.441624045,1.816708728
5.422458281,-0.750339985,-1.697004318,-0.700286746,1.983238583
5.427225677,-1.041821241,-1.517518997,-0.958845735,2.075485618
5.431992343,-1.251827002,-1.231926918,-1.198031545,2.126027835
5.436759739,-1.40509975,-0.8741045,-1.427555799,2.185470097
5.441527916,-1.390372157,-0.497200012,-1.516336441,2.116510994
5.446295312,-1.220685124,-0.130448341,-1.424795866,1.880726509
5.451061979,-0.925690413,0.208946228,-1.249678969,1.569158626
5.455829375,-0.577139139,0.501698494,-1.023063779,1.277282451
5.460597552,-0.334248543,0.71457386,-0.855596423,1.163779674
5.465364948,-0.190863848,0.840784073,-0.807425618,1.181220976
5.470131614,-0.040749073,0.983510971,-0.873746991,1.316202158
5.47489901,0.171468973,1.205063343,-1.04471004,1.604056837
5.479667187,0.476737976,1.49337101,-1.23884809,1.998044209
5.484434583,0.836616516,1.814813614,-1.3582412,2.416256362
5.489201198,1.131514311,2.13822937,-1.393620849,2.791868289
5.493968646,1.275631428,2.439733505,-1.407415867,3.091982299
5.498736823,1.314671516,2.740830421,-1.37366724,3.335786906
5.503504218,1.322906733,3.082006454,-1.152141094,3.54630443
5.508270833,1.255066633,3.422426701,-0.779793501,3.727770738
5.513038281,1.022954941,3.733310223,-0.369936585,3.888559516
5.517806458,0.658068895,4.043408871,0.010123014,4.096622077
5.522573854,0.251664162,4.362276554,0.374286056,4.385530941
5.527340468,-0.141138077,4.689888,0.736674547,4.749490373
5.532107916,-0.498782396,5.038209915,1.039890647,5.168531279
5.536876093,-0.849931955,5.402526855,1.243667841,5.608599687
5.541643489,-1.170504451,5.735132694,1.369991302,6.011547543
5.546410104,-1.44165349,6.050474167,1.441177845,6.3846375
5.551177552,-1.653947592,6.35829401,1.429453254,6.723598885
5.555945729,-1.812413454,6.596540928,1.364396572,6.975727399
5.560713125,-1.902995706,6.722346306,1.270732164,7.101133201
5.565479739,-1.913820863,6.719242096,1.20404315,7.089474208
5.570247187,-1.842291951,6.549260139,1.178732395,6.90479964
5.575015364,-1.685912728,6.215023994,1.137147188,6.539260563
5.57978276,-1.406421542,5.824234962,1.071502209,6.086694623
5.584549375,-1.073235273,5.477164268,1.081177711,5.685077627
5.589316823,-0.793917894,5.159101486,1.260275126,5.369816306
5.594085,-0.527693749,4.764410019,1.606904507,5.055710199
5.598852396,-0.253133297,4.218632698,2.045240402,4.695098147
5.60361901,-0.011240482,3.485741138,2.440552473,4.255210219
5.608386406,0.221632958,2.57051754,2.737688303,3.761863745
5.613154635,0.447677374,1.468360901,2.930091143,3.307859258
5.617922031,0.642952442,0.162894249,2.987755537,3.06049106
5.622688646,0.8362813,-1.280820847,2.957459927,3.32963026
5.627456041,1.008916616,-2.795310974,2.92651701,4.170872569
5.632224271,1.132511377,-4.248638153,2.931853771,5.284815485
5.636991666,1.214923143,-5.628562927,3.074541569,6.527600227
5.641758281,1.273359537,-6.951695442,3.366771698,7.828324578
5.646525677,1.356077194,-8.098340988,3.725044489,9.01654194
5.651293906,1.468148947,-9.066265106,4.247306824,10.11890506
5.656061302,1.662336111,-9.898736,4.957181931,11.19473039
5.660827916,2.035716772,-10.60571289,5.586923599,12.15890637
5.665595312,2.638997555,-11.20195007,5.87697506,12.92233839
5.670363541,3.419321775,-11.72379017,5.845632553,13.53921849
5.675130937,4.216162682,-12.27177906,5.5574646,14.11587765
5.679897552,4.97692585,-12.9056797,5.122046471,14.74997354
5.684664948,5.675561905,-13.64205742,4.689458847,15.5018953
5.689433125,6.334411621,-14.45192337,4.416563034,16.38563056
5.694200573,7.033868313,-15.2728281,4.378304482,17.37538868
5.698967187,7.706978798,-16.14507103,4.575143814,18.46598986
5.703734583,8.342505455,-17.0180397,4.964139462,19.59218602
5.70850276,8.985054016,-17.77171707,5.377865314,20.62732553
5.713270208,9.513563156,-18.40311813,5.89708662,21.53969061
5.718036823,9.719555855,-18.87799454,6.46102047,22.1944414
5.722804218,9.69865036,-19.0689106,6.788558006,22.44485888
5.727572396,9.558504105,-18.91092491,6.834785461,22.26437455
5.732339843,9.316492081,-18.31576157,6.492651939,21.5503753
5.737106458,8.972945213,-17.19773102,5.30134964,20.10920202
5.741873854,8.277979851,-15.87435627,2.465763092,18.07208137
5.746642031,6.777183533,-14.9511261,-2.174212933,16.55879193
5.751409479,4.886705399,-14.4322443,-6.231862068,16.46224985
5.756176093,3.628229618,-13.72398567,-7.491024017,16.05077175
5.760943489,3.110383749,-12.59502792,-6.762085915,14.6299358
5.765711666,2.913823605,-11.16322517,-5.378843307,12.72949016
5.770479114,2.649770975,-9.617559433,-3.711022377,10.64379738
5.775245729,2.162550211,-7.990483284,-2.124260426,8.546164571
5.780013125,1.276581287,-6.561914444,-1.216103792,6.794651528
5.784781302,-0.031634092,-5.484275818,-0.737237811,5.533696915
5.78954875,-1.391192079,-4.491193771,-0.421347261,4.720568865
5.794315364,-2.618674517,-3.436150551,-0.434380412,4.342035603
5.79908276,-3.830112696,-2.289971352,-0.687952876,4.515197804
5.803850937,-4.70956707,-1.014297485,-0.89296931,4.899613818
5.808618385,-5.078522205,0.431354523,-0.8417961,5.165856675
5.813385,-5.249310017,1.939133644,-0.701694965,5.639846697
5.818152396,-5.223062992,3.396536827,-0.543778956,6.254002318
5.822920573,-5.010741711,4.815451622,-0.3385517,6.957781548
5.827688021,-4.692596912,6.20776844,-0.154435515,7.783360786
5.832454635,-4.25114727,7.563755035,-0.021383882,8.676583465
5.837222031,-3.709782124,8.892798424,0.054775834,9.635732852
5.841990208,-3.194085836,10.11829376,0.132113755,10.61129149
5.846757656,-2.984071493,11.06835365,0.15926671,11.46466315
5.851524271,-2.912218571,11.68356323,-0.07648629,12.04128386
5.856291666,-2.794363499,12.04339218,-0.444528818,12.37131232
5.861059843,-2.723923206,12.24870491,-0.757159948,12.57075259
5.865827291,-2.669957399,12.38565636,-0.882014513,12.7008309
5.870593906,-2.54440856,12.49976826,-0.871598601,12.78584786
5.875361302,-2.219267368,12.60517502,-0.789846301,12.82339433
5.880129479,-1.843732357,12.65639305,-0.510637403,12.80017127
5.884896875,-1.56156671,12.63441372,-0.283144683,12.73369827
5.889663541,-1.429630756,12.5419054,-0.331785202,12.62748259
5.894430937,-1.382770419,12.42217636,-0.550492883,12.51101762
5.899199114,-1.337005496,12.34710503,-0.783305109,12.44396051
5.903966562,-1.301825523,12.37410069,-0.929619193,12.47707134
5.908733177,-1.260370612,12.46007538,-1.10643959,12.57243895
5.913500573,-1.243774414,12.5571928,-1.399358034,12.6959942
5.91826875,-1.230312586,12.60095501,-1.559300542,12.75653379
5.923036198,-1.248647332,12.60343456,-1.607623339,12.76675901
5.927802812,-1.284376383,12.61493492,-1.5968858,12.78030712
5.932570208,-1.349305868,12.63309669,-1.457742095,12.788306
5.937338385,-1.5004884,12.60535812,-1.250207901,12.75576492
5.942105781,-1.737478018,12.53663349,-1.053074479,12.70019587
5.946872448,-2.04760623,12.4366436,-0.94733572,12.63962975
5.951639843,-2.468205929,12.25773621,-0.901533067,12.53622349
5.956408021,-2.998093605,11.93322182,-0.896077633,12.336665
5.961175468,-3.490710974,11.47771454,-0.9402107,12.03357762
5.965942083,-3.745213985,11.00138092,-1.031213164,11.66706521
5.970709479,-3.688232183,10.51136017,-1.183248401,11.20231342
5.975477656,-3.461695671,10.06259727,-1.355700135,10.7274006
5.980245104,-3.252540588,9.719554901,-1.49146688,10.35727962
5.985011718,-3.158871651,9.450984955,-1.526511669,10.08116187
5.989779114,-3.142240524,9.271126747,-1.451906323,9.89623659
5.994547291,-3.137969971,9.179853439,-1.330493093,9.792179358
5.999314687,-3.157942772,9.138786316,-1.189163685,9.741874981
6.004081354,-3.202013969,9.13830471,-1.047374129,9.739532792
6.00884875,-3.265430689,9.195087433,-0.948410928,9.803680624
6.013616927,-3.305366516,9.311429024,-0.88020432,9.91982449
6.018384375,-3.212232351,9.475269318,-0.883147717,10.04385958
6.023150989,-3.032061338,9.664999962,-1.02361834,10.18103211
6.027918385,-2.88687849,9.837576866,-1.245849967,10.32783269
6.032686562,-2.790823698,9.952409744,-1.439392686,10.43604369
6.03745401,-2.71707201,10.01202393,-1.56579411,10.49165452
6.042220625,-2.641264915,10.05001545,-1.663319707,10.5235794
6.046988021,-2.539195776,10.08556557,-1.693920732,10.53733911
6.051756198,-2.410775185,10.14019871,-1.636556506,10.55053477
6.056523646,-2.287068844,10.19953442,-1.558696628,10.5683831
6.06129026,-2.156230927,10.25875378,-1.573174,10.60029421
6.066057656,-1.951871157,10.37037849,-1.663624644,10.68279917
6.070825833,-1.734382629,10.53185749,-1.704095125,10.80888734
6.075593281,-1.573686719,10.63062668,-1.590790868,10.8635781
6.080359896,-1.369992614,10.63791084,-1.320665002,10.80676561
6.085127291,-1.112076998,10.5440979,-1.036105156,10.65308545
6.089895468,-0.822187066,10.30849838,-0.804858565,10.37250827
6.094662916,-0.510350525,10.00524616,-0.43130365,10.02753366
6.099429531,-0.215153992,9.598392487,0.08188802,9.601152807
6.104196927,0.160874605,8.968338966,0.369538546,8.977390667
6.108965104,0.364678264,8.0602808,0.427542031,8.079845852
6.1137325,0.034547329,7.065793991,0.736022294,7.104109167
6.118499166,-0.392444849,6.317230701,1.329802513,6.46759549
6.123266562,-0.525748074,5.883524418,1.632890821,6.128507408
6.128034739,-0.489770591,5.656648159,1.568319678,5.890430395
6.132802135,-0.413360059,5.440283298,1.553878665,5.67292586
6.137568802,-0.381800354,5.095700741,1.809653163,5.420957676
6.142336198,-0.408838272,4.656325817,2.501885414,5.301693076
6.147104375,-0.477417767,3.94494009,3.654958487,5.399000054
6.151871823,-0.361468434,2.000521183,4.961756706,5.362068075
6.156638437,0.287130237,-4.279131889,5.165831089,6.714106369
6.161405833,-0.579777956,-17.44154358,4.616593838,18.05149644
6.16617401,-1.847583294,-30.08201218,7.920158386,31.16199495
6.170941458,-2.212756872,-38.90711975,12.89532566,41.04813862
6.175708073,-2.022194862,-46.08608246,14.87720871,48.47006919
6.180475468,-0.669612706,-49.68160629,15.0197773,51.90668642
6.185243646,1.148769498,-48.7778244,13.32895851,50.5792147
6.190011041,3.841807365,-41.94715118,10.02471161,43.29916649
6.194777708,6.250310421,-32.03612518,6.395506859,33.26082087
6.199545104,7.545822144,-23.18183899,3.385234118,24.61294173
6.204313281,8.322566032,-16.13655853,1.556660414,18.22297501
6.209080677,8.276348114,-10.88713932,0.492070198,13.68465834
6.213847343,7.353878975,-7.409449577,-0.583462,10.45561605
6.218614739,6.630981445,-5.136240005,-0.948505163,8.441003398
6.223382916,6.306437492,-3.918265343,-0.035835981,7.424637456
6.228150364,5.797604561,-4.395425797,1.884057283,7.515428027
6.232916979,5.252674103,-6.426652908,3.952880859,9.193351942
6.237684375,5.045536995,-8.806632996,5.475140095,11.53218918
6.242452552,5.096895695,-10.75203419,6.419862747,13.52032627
6.24722,5.143520832,-12.17123508,6.823757648,14.87139666
6.251986614,5.229218483,-13.05606556,7.013441563,15.71604074
6.25675401,5.448785305,-13.33568478,7.031704903,16.03042805
6.261522187,5.615847588,-13.0559845,6.853023529,15.77847923
6.266289635,5.63574028,-12.34370899,6.529376984,15.05860166
6.27105625,5.526561737,-11.42091942,6.036637306,14.05066813
6.275823646,5.327064037,-10.45698738,5.388857841,12.9137905
6.280591823,5.172983646,-9.430202484,4.656756401,11.72065949
6.285359271,5.042360306,-8.412060738,3.844055414,10.53398905
6.290125885,4.600662231,-7.557051659,2.492177248,9.191630442
6.294893281,3.75041008,-6.877757072,0.035191536,7.833923446
6.299661458,2.662530422,-6.290863991,-3.278532982,7.577124554
6.304428906,1.403547406,-5.81659317,-6.153485775,8.583011628
6.309195521,0.171777606,-5.442762375,-7.339791298,9.139239909
6.313962916,-0.778075635,-5.04086113,-6.954084396,8.624092556
6.318731093,-1.296154737,-4.475908279,-5.893146515,7.51285218
6.323498541,-1.389572382,-3.682608604,-4.729865074,6.153384529
6.328265156,-1.230133533,-2.7748909,-3.687238216,4.775874127
6.333032552,-1.056048393,-1.806370735,-2.886748791,3.565323551
6.337800729,-0.949567258,-0.801708221,-2.298846006,2.613256017
6.342568177,-0.930171371,0.229042053,-1.80052352,2.039500916
6.347334791,-1.004969597,1.266336441,-1.336225748,2.097396272
6.352102187,-1.11184454,2.388648033,-0.736166596,2.735649642
6.356870364,-1.253354549,3.533490658,-0.265290141,3.758567907
6.361637812,-1.467626572,4.55014801,-0.027618766,4.781060287
6.366404427,-1.770963073,5.45809412,0.189551473,5.74134404
6.371171823,-2.179420471,6.200368881,0.22855401,6.576221163
6.37594,-2.639835119,6.801455975,0.073745251,7.296161401
6.380707448,-3.060957432,7.309720993,-0.158626437,7.926325993
6.385474062,-3.416394949,7.711262703,-0.426366925,8.444946162
6.390241458,-3.663133144,8.056722641,-0.68491739,8.876848313
6.395009635,-3.863400459,8.365495682,-0.878248096,9.256278995
6.399777083,-3.991175652,8.661660194,-1.015100002,9.590842946
6.404543698,-3.972791195,8.950042725,-1.121348977,9.856153316
6.409311093,-3.880553246,9.249740601,-1.139585733,10.09529843
6.414079271,-3.746119976,9.527209282,-1.19426477,10.30666774
6.418846718,-3.574860573,9.717811584,-1.335858345,10.44030687
6.423613333,-3.343394279,9.857409477,-1.392603159,10.50172131
6.428380729,-3.071272373,9.92920208,-1.391703486,10.48611494
6.433148958,-2.823340893,9.890130043,-1.343635321,10.37262175
6.437916354,-2.599556923,9.709180832,-1.244492769,10.12791444
6.442682968,-2.480540752,9.307627678,-1.111982226,9.696469455
6.447450364,-2.479725122,8.702570915,-0.963244736,9.100088881
6.452218593,-2.495811939,8.100046158,-0.900834084,8.523574781
6.456985989,-2.459282398,7.653244972,-1.011972666,8.102118068
6.461752604,-2.341720104,7.347747803,-1.252195835,7.812876886
6.46652,-2.241612911,7.116542816,-1.517202139,7.613928843
6.471288229,-2.257046223,6.926153183,-1.717650652,7.484395722
6.476055625,-2.404401779,6.779009342,-1.838751078,7.424090591
6.480822239,-2.664106846,6.677497864,-1.894833088,7.434839301
6.485589687,-2.994822979,6.633541107,-1.883935928,7.518114583
6.490357864,-3.329216957,6.651809216,-1.847441435,7.664417215
6.49512526,-3.581308842,6.693846703,-1.788633347,7.799523443
6.499891875,-3.720308542,6.694909573,-1.610584497,7.826652685
6.504659323,-3.803705692,6.669277668,-1.345504522,7.794730529
6.5094275,-3.850515366,6.602582932,-1.104003191,7.72265453
6.514194896,-3.657904148,6.49002552,-0.871773124,7.500712126
6.51896151,-3.212441683,6.348295689,-0.627342582,7.142422448
6.523728958,-2.680362701,6.160539627,-0.404311419,6.730531958
6.528497135,-2.162919998,5.967300415,-0.214959264,6.350834957
6.533264531,-1.763427734,5.756496906,-0.095307231,6.021296993
6.538031146,-1.505862474,5.494590282,-0.057246685,5.697492549
6.542798593,-1.373289824,5.160072803,0.028556228,5.339765139
6.547566771,-1.21766603,4.791229248,0.198273897,4.947514609
6.552334166,-0.848453522,4.402441502,0.316544056,4.494615077
6.557100781,-0.359494627,3.898186684,0.358421207,3.931101826
6.561868229,-0.02084589,3.228613377,0.409145355,3.254501315
6.566636406,0.175681114,2.415759087,0.460544705,2.465533866
6.571403802,0.317255497,1.524688244,0.466012001,1.625574507
6.576170468,0.419113636,0.603578568,0.478908062,0.877106755
6.580937864,0.661027432,-0.31150341,0.588088751,0.937997878
6.585706041,1.028643489,-1.189400673,0.848533988,1.786838358
6.590473437,1.326131105,-2.094647408,1.341232181,2.818700983
6.595240104,1.556607246,-3.098894119,2.144405842,4.077333356
6.6000075,1.761927366,-4.249760628,3.266662598,5.642334443
6.604775677,1.869310975,-5.597182274,4.489367485,7.414660703
6.609543073,1.870777488,-7.102384567,5.573338985,9.219858046
6.614309739,1.968096256,-8.674082756,6.416181564,10.96724671
6.619077135,2.366899967,-10.21157646,7.013947487,12.61245292
6.623845312,3.009206295,-11.70515823,7.389241219,14.1656958
6.628612708,3.81049943,-13.1379652,7.655628204,15.67592673
6.633379375,4.681603909,-14.53394127,8.043143272,17.25818698
6.638146771,5.502504349,-15.90747356,8.582857132,18.89419768
6.642914948,6.184792995,-17.26580811,9.207334518,20.52156921
6.647682396,6.747667313,-18.5445385,9.779671669,22.0243706
6.65244901,7.144012451,-19.75589371,10.31797028,23.40497299
6.657216406,7.226522446,-20.82857704,10.98784256,24.63300494
6.661984583,7.191322803,-21.33060455,11.58123302,25.31471455
6.666752031,7.299159527,-21.03629684,11.53726482,25.07811784
6.671518646,7.450890064,-20.13832092,10.51765728,23.91001562
6.676286041,7.277924061,-19.08625031,8.190836906,22.00779268
6.681054218,6.332675934,-18.24677277,4.211688042,19.76830334
6.685821666,4.850451946,-17.75698853,0.189460278,18.4085149
6.690588281,3.883200169,-17.32465363,-1.727472663,17.83835835
6.695355677,3.992713928,-16.55833054,-1.657948494,17.11341193
6.700123854,4.805726528,-15.42120075,-0.580270767,16.16307997
6.704891302,5.392849922,-14.16551399,0.86508131,15.18199534
6.709657916,5.232508183,-13.04270267,2.368701458,14.25138525
6.714425312,4.607584,-12.14347649,3.731733322,13.5136851
6.719193489,3.856894016,-11.46744061,4.56037426,12.92961093
6.723960937,3.233422518,-10.86587429,4.589396477,12.23048672
6.728727552,2.654162407,-10.24761295,3.899072647,11.28099804
6.733494948,1.9732126,-9.543136597,2.658806801,10.10120179
6.738263177,1.219043732,-8.671128273,1.002188802,8.813564293
6.743030573,0.310079217,-7.636614799,-0.73470676,7.678139667
6.747797187,-0.610365212,-6.411316872,-2.157271385,6.792006298
6.752564635,-1.475494862,-5.03164959,-3.144704342,6.114225059
6.757332812,-2.240701675,-3.538811684,-3.827358246,5.673852595
6.762100208,-2.689582825,-1.883164406,-4.304820061,5.414022507
6.766866823,-2.907420397,-0.137031555,-4.401591301,5.276919271
6.771634271,-2.924428225,1.656078339,-3.983366013,5.211725309
6.776402448,-2.589718819,3.512528896,-3.324607849,5.486120684
6.781169843,-2.053612232,5.350803852,-2.815950871,6.385765762
6.78593651,-1.487514973,7.168459415,-2.383716106,7.699455413
6.790703906,-0.804808319,8.943910599,-1.923431158,9.183726948
6.795472083,-0.059458315,10.56008244,-1.502487898,10.66659956
6.800239479,0.516095221,11.92642021,-1.142880917,11.99216536
6.805006146,0.83612442,13.02903557,-0.938297153,13.08951005
6.809773541,0.96597755,13.8732357,-1.027150631,13.9447058
6.814541718,0.968366146,14.46429729,-1.444441199,14.56846044
6.819309114,0.949052513,14.90069962,-2.010329247,15.06562224
6.824075781,0.975241184,15.27358437,-2.444958925,15.49875153
6.828843177,1.006456852,15.47789955,-2.612134457,15.7290043
6.833611354,0.952587843,15.50917625,-2.557818413,15.74752065
6.83837875,0.768961191,15.46335983,-2.265507221,15.64734232
6.843145416,0.494502723,15.38126564,-1.749686718,15.48835915
6.847912812,0.35621345,15.29879951,-1.165813208,15.34728885
6.852680989,0.270169616,15.21355247,-0.528448641,15.22512491
6.857448437,0.01146239,15.11116791,0.074201643,15.11135443
6.862215052,-0.402577698,14.91518402,0.382316321,14.92551336
6.866982448,-0.956878603,14.61622429,0.426213086,14.65371239
6.871750677,-1.617067814,14.19539452,0.324861974,14.29089462
6.876518073,-2.22965765,13.54054642,0.075211793,13.72309831
6.881284687,-2.660556793,12.66880608,-0.316204965,12.94902295
6.886052083,-3.019863605,11.75027084,-0.726297617,12.15384504
6.890820312,-3.386303186,10.89746857,-1.1349895,11.46778408
6.895587708,-3.764035702,10.12954617,-1.587183237,10.92221685
6.900354323,-4.200006485,9.439332962,-1.86532712,10.49859545
6.905121771,-4.692949295,8.845979691,-1.932075143,10.19843342
6.909889948,-5.120199203,8.378113747,-1.967844367,10.01407216
6.914657343,-5.316791534,8.040334702,-2.066934109,9.858370603
6.91942401,-5.256847382,7.801350594,-2.196698904,9.660279579
6.924191406,-5.024763107,7.644218445,-2.219296455,9.413160823
6.928959583,-4.625943184,7.559181213,-2.049818516,9.096280938
6.933726979,-4.130321026,7.567590714,-1.706013203,8.788541519
6.938493646,-3.648209572,7.671668053,-1.289185882,8.592201349
6.943261041,-3.275345087,7.85213232,-0.943261206,8.560000533
6.948029218,-3.0046947,8.065821648,-0.756358266,8.640471452
6.952796614,-2.762476683,8.295921326,-0.739579439,8.774996627
6.957563281,-2.565915823,8.559104919,-0.815524817,8.97258501
6.962330677,-2.405648708,8.809890747,-0.892607808,9.175950598
6.967098854,-2.250865936,9.048266411,-0.932228506,9.370516127
6.97186625,-2.097118378,9.28139782,-0.984197676,9.566132763
6.976632916,-1.925605774,9.502086639,-1.110384703,9.758614773
6.981400312,-1.710269451,9.707947731,-1.288782477,9.941339498
6.986168489,-1.542035103,9.901402473,-1.504724026,10.13310602
6.990935937,-1.440042496,10.08725834,-1.736305594,10.33640461
6.995702552,-1.327688456,10.25358009,-1.940319419,10.51967209
7.000469948,-1.221669555,10.41473389,-2.095359325,10.69344141
7.005238125,-1.13407135,10.58982754,-2.211176634,10.87749361
7.010005573,-1.110118628,10.73818684,-2.235611916,11.02447189
7.014772187,-1.158966064,10.84311581,-2.08079195,11.10162411
7.019539583,-1.211057544,10.91896629,-1.790779471,11.13091984
7.024307812,-1.270960808,10.97768974,-1.388106108,11.13785671
7.029075208,-1.412356138,10.96670818,-0.918977261,11.09540254
7.033841823,-1.584756017,10.9028244,-0.625381827,11.03513181
7.038609271,-1.782883883,10.84589195,-0.414358288,10.99926088
7.043377448,-2.023070335,10.75763321,-0.114185035,10.94680429
7.048144843,-2.268756866,10.59030247,0.193349659,10.83231961
7.05291151,-2.502598763,10.24122524,0.520031393,10.55538382
7.057678906,-2.323887348,9.731918335,0.896651566,10.04562944
7.062447083,-1.51725471,9.184091568,1.534991741,9.434288496
7.067214479,-0.684531689,8.535236359,2.615108252,8.95307961
7.071981146,-0.163121581,7.792273521,3.876530409,8.70480461
7.076748541,0.121955872,7.182168484,5.037882328,8.773749239
7.081516718,0.264897347,6.65429163,5.924109936,8.913183844
7.086284114,0.591086149,5.983428955,6.322654724,8.725065482
7.091050781,1.410252094,4.758148193,6.455374718,8.142520982
7.095818177,2.605138302,1.900115013,6.535876274,7.287994327
7.100586354,4.353913307,-4.483406067,6.183893204,8.791929606
7.105353802,5.780705452,-12.91857719,7.197449684,15.87795561
7.110120416,5.692483425,-21.7756691,10.6756258,24.91090361
7.114887812,4.811991692,-31.7769165,14.2975502,35.17595241
7.119655989,4.391638756,-41.68489075,16.92953873,45.20537456
7.124423437,4.382048607,-50.29997253,17.43898582,53.41729882
7.129190052,5.008481503,-56.72427368,13.32729149,58.48371406
7.1339575,6.890349388,-59.66268158,1.216369629,60.07155769
7.138725677,9.359790802,-56.59022522,-18.11516571,60.15162926
7.143493073,10.34271336,-46.16067505,-24.32768059,53.19413204
7.148259687,9.011294365,-33.6986351,-16.20270157,38.46204586
7.153027135,7.299365044,-24.34989166,-9.353404045,27.08660409
7.157795312,6.557247162,-17.91886902,-3.470223665,19.39396322
7.162562708,6.484495163,-13.4321661,0.981975555,14.94777708
7.167329323,6.400426388,-10.26787186,3.963026285,12.73185877
7.172096771,6.480174065,-7.933197975,5.60051918,11.67450646
7.176864948,6.850768089,-6.160302162,6.245428085,11.13048598
7.181632343,7.059419155,-5.032781601,6.602295876,10.89745843
7.18639901,6.801672935,-4.641022682,7.130174637,10.89225581
7.191166406,6.151954651,-4.881287575,7.90773201,11.14476289
7.195934583,5.280332565,-5.513474464,8.669715881,11.55180878
7.200701979,4.556193352,-6.223842621,9.196962357,12.00330086
7.205468646,4.079550743,-6.744382858,9.214673042,12.12599001
7.210236041,3.591515779,-6.898067474,8.566802025,11.57032486
7.215004218,3.031829834,-6.622677803,7.278045654,10.29668888
7.219771666,2.560203791,-6.068673134,5.453129768,8.551026916
7.224538281,1.976141214,-5.385751724,3.133805037,6.536986289
7.229305677,1.044736147,-4.679354668,-0.481025815,4.81863254
7.234073854,-0.465099692,-4.061988831,-5.283318996,6.680533706
7.238841302,-2.042173386,-3.425961494,-8.01920414,8.956300538
7.243607916,-2.676718712,-2.540891647,-7.642484665,8.486962076
7.248375312,-2.506466627,-1.372879982,-6.472711563,7.075533151
7.253143541,-2.09436202,-0.055270195,-5.47330761,5.860588985
7.257910937,-1.672445178,1.279026031,-4.609119415,5.067244049
7.262677552,-1.185210466,2.564496517,-3.77304554,4.713516615
7.267445,-0.493200421,3.83644104,-2.950799465,4.865053339
7.272213177,-0.587112427,4.992221832,-2.132421017,5.460238018
7.276980573,-1.690769553,5.994138718,-1.388417721,6.380917208
7.281747239,-2.882405996,6.957586288,-0.717377842,7.565110856
7.286514635,-3.988571644,7.868554115,-0.091121495,8.822196481
7.291282812,-4.486588478,8.848958969,0.427334547,9.930567246
7.296050208,-3.935518742,9.958011627,1.032723665,10.75717535
7.300816875,-2.893495083,11.05180359,2.031733036,11.60356047
7.305584271,-2.305912018,12.00376415,3.012145519,12.588908
7.310352448,-2.491077662,12.66387177,3.653708935,13.41375059
7.315119896,-3.209442854,12.97320843,3.912335396,13.92519402
7.31988651,-3.804212809,13.17398262,3.812876225,14.23249375
7.324653906,-4.079134941,13.39321136,3.533510685,14.43963816
7.329422083,-4.101883888,13.57353973,2.917840481,14.4768859
7.334189531,-3.892736673,13.69107151,1.996258974,14.3730264
7.338956146,-3.574962139,13.74821186,0.933069646,14.23602131
7.343723541,-3.280810356,13.7331028,-0.219756335,14.12126488
7.348491771,-3.117951393,13.61477661,-1.160313368,14.01535195
7.353259166,-3.019433022,13.39808655,-1.552309632,13.82155433
7.358025781,-3.068637848,13.01137638,-1.450277448,13.44677501
7.362793229,-3.036113262,12.19408417,-1.097756147,12.61422772
7.367561406,-2.78776741,10.82237434,-0.615425348,11.19259496
7.372328802,-2.526725531,9.277146339,-0.134920061,9.616027742
7.377095416,-2.191020489,7.979439259,0.184385061,8.276836323
7.381862864,-1.821671486,7.05089426,0.300842106,7.288628324
7.386631041,-1.5931952,6.397884369,0.204167962,6.59642933
7.391398437,-1.498062015,5.888688087,-0.003340125,6.076252821
7.396165104,-1.449822068,5.427594662,-0.217724443,5.622114529
7.4009325,-1.388561249,5.000275612,-0.3880741,5.203985016
7.405700677,-1.278416634,4.570919514,-0.652243972,4.790936911
7.410468125,-1.131622314,4.091687679,-0.869124353,4.333342159
7.415234739,-0.953240931,3.574559212,-0.92655158,3.813743523
7.420002135,-0.774511278,2.969311714,-0.98538053,3.222988452
7.424770312,-0.621757567,2.259226799,-0.969859123,2.53600373
7.42953776,-0.487819672,1.496959686,-0.89977026,1.813406423
7.434304375,-0.241487622,0.720675468,-0.818982303,1.117327801
7.439071771,0.159571648,-0.014763832,-0.682385385,0.700949995
7.44384,0.642650962,-0.755065918,-0.476226866,1.099962194
7.448607396,1.225885034,-1.588935852,-0.229569435,2.019953807
7.45337401,1.829665184,-2.592903137,-0.071339846,3.17425751
7.458141458,2.298521996,-3.836084366,-0.11785531,4.473548536
7.462909635,2.506409645,-5.341907501,-0.377222538,5.912728803
7.467677031,2.304445505,-7.131162643,-0.862132311,7.54368755
7.472443698,1.673576713,-9.025984764,-1.487145782,9.299508726
7.477211093,0.776657343,-10.77703571,-1.997948766,10.98815247
7.481979271,-0.149444938,-12.19501114,-2.119118929,12.37866291
7.486746666,-0.942077279,-13.03342056,-1.858010292,13.19885462
7.491513333,-1.758200169,-13.09373665,-1.37047565,13.28214632
7.496280729,-2.744621754,-12.3737278,-0.755159497,12.69694271
7.501048906,-3.488037109,-11.09159756,-0.151348949,11.62810585
7.505816354,-3.566530704,-9.353505135,0.129819989,10.01124632
7.510582968,-2.94355607,-7.203912735,0.006605744,7.782089994
7.515350364,-1.941540718,-5.0029459,-0.220318317,5.370995085
7.520118593,-0.996154487,-3.09809494,-0.315243006,3.269540361
7.524885989,-0.511993647,-1.575333595,-0.377014875,1.698809479
7.529652604,-0.655488133,-0.38388443,-0.682686687,1.021319275
7.534420052,-1.143246412,0.682401657,-1.176504612,1.776751947
7.539188229,-1.659081459,1.822096825,-1.530641198,2.900939607
7.543955625,-1.842989564,3.137613297,-1.523203015,3.944790889
7.548722239,-1.636537671,4.592567921,-1.054702759,4.988219478
7.553489687,-1.249542117,6.112217903,-0.105294824,6.239523235
7.558257864,-0.370422125,7.791322708,1.057729006,7.871512735
7.56302526,1.236501932,9.590691566,2.017703772,9.87833135
7.567791927,3.025236607,11.12264347,1.772439003,11.66219509
7.572559323,4.038033485,12.01722908,0.726937532,12.69834428
7.5773275,3.554388046,12.08451176,0.257442832,12.5990228
7.582094948,1.820161104,11.24237156,0.266896367,11.39188915
7.586861562,0.045360684,9.778960228,0.614228487,9.798336459
7.591628958,-0.636247158,8.325866699,1.117320776,8.424563636
7.596397187,-0.176830173,7.16698885,1.513046384,7.327094065
7.601164583,0.83025372,6.131682396,1.819355845,6.449566337
7.605931198,1.967129827,5.07143259,1.685549259,5.694743592
7.610698646,2.753143311,3.874215126,0.92285347,4.841590592
7.615466823,2.938776731,2.512020588,0.098438263,3.867343559
7.620234218,2.731782436,1.097987175,-0.477289915,2.982619114
7.625000833,2.377758026,-0.199910164,-0.872320652,2.540598478
7.629768281,1.963719726,-1.398036003,-1.166504502,2.677953058
7.634536458,1.673692465,-2.496086121,-1.432412505,3.329188786
7.639303854,1.705248117,-3.474789619,-1.664028883,4.213196668
7.644070521,1.833063483,-4.427330971,-1.614394426,5.056446442
7.648837916,1.873613715,-5.334573746,-1.026097536,5.746388566
7.653606093,1.983228683,-6.074735641,0.132620335,6.391650591
7.658373541,2.241658211,-6.595722198,1.763573885,7.186012504
7.663140156,2.515676022,-6.933916092,3.407942772,8.125385662
7.667907552,2.67197752,-7.096550941,4.384428978,8.759207532
7.672675729,2.639832258,-7.076081276,4.379794121,8.730534755
7.677443177,2.487025499,-6.939098358,3.798611641,8.292516642
7.682209791,2.377120972,-6.814788818,3.693301916,8.10756004
7.686977239,2.163610935,-6.890058517,4.861525059,8.705661638
7.691745416,1.42364192,-7.325363159,7.047076225,10.26396537
7.696512812,0.316996336,-8.006087303,9.198470116,12.19876113
7.701279427,-0.486852169,-8.731562614,10.44422913,13.62200913
7.706046875,-0.767782569,-9.571370125,10.5516777,14.26669263
7.710815052,-0.705724418,-10.62355518,9.841545105,14.49875794
7.715582448,-0.323056102,-11.86883736,8.861527443,14.81554366
7.720349114,0.543497801,-13.0655365,7.769290924,15.21070397
7.72511651,1.653409362,-14.42172527,6.602428436,15.94716224
7.729884687,2.780987263,-16.16182327,5.496626854,17.29599169
7.734652083,4.133549213,-17.92171478,4.429628372,18.91813144
7.73941875,5.686827183,-19.47163582,3.589351177,20.60019531
7.744186146,7.27885294,-20.76835632,2.979883432,22.2077921
7.748954323,8.825576782,-21.63689995,2.409875393,23.49156752
7.753721771,9.947471619,-21.75612831,1.915757656,23.99898827
7.758488385,10.12291527,-20.87898445,1.454971075,23.24913646
7.763255833,9.538999557,-19.0676136,1.220145464,21.35544792
7.76802401,8.832433701,-16.76514626,1.358795881,18.99811412
7.772791406,8.406335831,-14.40079308,1.682086468,16.75943729
7.777558021,8.355308533,-12.19096661,2.067653894,14.92333877
7.782325468,8.409733772,-10.27553558,2.540958405,13.51912435
7.787093646,8.214547157,-8.8251791,3.055539846,12.43780105
7.791861041,7.588061333,-7.835612297,3.485854149,11.45105558
7.796627708,6.571648598,-7.177946091,3.7951653,10.4457051
7.801395104,5.314240456,-6.859127998,3.554331064,9.376676268
7.806163281,4.026488781,-6.732908249,2.591448307,8.261977349
7.810930677,2.722719908,-6.590800285,1.149690628,7.223132329
7.815697343,1.178613424,-6.482628822,-0.658820391,6.621755837
7.820464739,-0.36152029,-6.396240234,-2.495588541,6.875358043
7.825232916,-1.746639132,-6.228802681,-3.973356247,7.591856885
7.830000364,-3.038928986,-5.784601212,-4.818984032,8.119070615
7.834766979,-4.218912125,-4.970936775,-5.08280468,8.267063285
7.839534427,-5.164392471,-3.843389511,-4.779003143,8.017572175
7.844302604,-5.660924911,-2.450312614,-3.995230436,7.349283571
7.84907,-5.831347942,-0.949806213,-3.064299345,6.655575193
7.853836666,-5.817772865,0.552921295,-2.324429274,6.289290462
7.858604062,-5.444833755,2.038732529,-1.826476336,6.094149715
7.863372239,-4.81690836,3.52437067,-1.339292288,6.116984437
7.868139635,-4.193853378,5.102957726,-0.764375746,6.649274696
7.872906302,-3.457911491,6.829157829,0.120466173,7.655655468
7.877673698,-2.625512123,8.563926697,0.994498134,9.012390411
7.882441875,-1.849011183,10.21146774,1.49608016,10.48480671
7.887209323,-1.251354218,11.67858315,1.89768374,11.89774749
7.891975937,-0.892753899,12.86267948,2.208136797,13.08133789
7.896743333,-0.612906754,13.79764748,2.211670399,13.98721618
7.901511562,-0.366089225,14.51022911,1.834480405,14.63031403
7.906278958,-0.092573404,14.97203827,1.369641781,15.03484015
7.911045573,0.229350567,15.3365078,1.210776091,15.38593682
7.915813021,0.411170065,15.66364479,1.217689514,15.71628444
7.920581198,0.537379324,15.85560036,1.191095233,15.90935407
7.925348593,0.506458223,15.91749001,1.27109468,15.97619071
7.93011526,0.267070234,15.90223885,1.440076232,15.96954434
7.934882656,-0.017198086,15.84591293,1.635246992,15.93007486
7.939650833,-0.4217816,15.6674118,1.723530889,15.7675696
7.944418281,-0.907731295,15.34066105,1.5816679,15.44867408
7.949184896,-1.409592867,14.95680428,1.299842238,15.07920873
7.953952291,-2.020047665,14.5422802,0.944089592,14.71223338
7.958720521,-2.693001509,14.09240913,0.582544923,14.35923434
7.963487916,-3.365724802,13.58098984,0.309494019,13.99525544
7.968254531,-3.952265501,12.95549774,0.130495459,13.54556582
7.973021979,-4.111944675,12.18489265,-0.197486371,12.86152008
7.977790156,-3.856082201,11.3218708,-0.754456103,11.98429524
7.982557552,-3.620900869,10.46935272,-1.42189312,11.1687085
7.987324218,-3.538115025,9.696696281,-2.153097391,10.54419296
7.992091614,-3.518970728,9.101911545,-2.832094669,10.16113719
7.996859791,-3.496114016,8.694421768,-3.374368668,9.96002746
8.001627187,-3.337619305,8.450147629,-3.622031212,9.780787682
8.006393854,-2.947975636,8.399961472,-3.482679605,9.559234818
8.01116125,-2.444685459,8.464666367,-3.048629045,9.32315412
8.015929427,-1.926112413,8.534058571,-2.493449926,9.097107082
8.020696875,-1.428349495,8.572195053,-1.968998432,8.910648974
8.025463489,-1.006620765,8.583826065,-1.535881996,8.778057233
8.030230937,-0.653859854,8.564146042,-1.197055101,8.672085738
8.034999114,-0.424475491,8.529957771,-0.924266696,8.590379965
8.03976651,-0.491846561,8.500510216,-0.736875653,8.546553264
8.044533177,-0.811264336,8.487903595,-0.673047721,8.553107651
8.049300573,-1.101935625,8.554385185,-0.739675343,8.656724995
8.05406875,-1.198952198,8.735733032,-0.960273683,8.86976006
8.058836146,-1.155982852,9.003017426,-1.253375053,9.16305452
8.063602812,-1.10309422,9.274744034,-1.50885129,9.461201085
8.068370208,-1.117262244,9.483893394,-1.712546349,9.701820645
8.073138385,-1.177206874,9.616150856,-1.888546705,9.870297968
8.077905833,-1.264139533,9.709813118,-2.075152159,10.00923454
8.082672448,-1.375827312,9.810340881,-2.28649354,10.16679604
8.087439896,-1.495653629,9.884238243,-2.531763554,10.31236986
8.092208073,-1.609217405,9.926784515,-2.810267687,10.44165868
8.096975468,-1.69496429,9.959569931,-3.090286255,10.5648382
8.101742135,-1.774347663,9.987425804,-3.321044683,10.67362739
8.106509531,-1.842393398,10.01996136,-3.459297419,10.75921826
8.111277708,-1.853594542,10.06195736,-3.462253332,10.80120349
8.116045104,-1.774719596,10.10857582,-3.337628603,10.79225183
8.120811771,-1.594163418,10.10475826,-3.167232275,10.70882145
8.125579166,-1.317416906,10.01221275,-2.977550983,10.52833327
8.130347343,-0.892748356,9.804627419,-2.859469652,10.2520381
8.135114791,-0.342728496,9.465240479,-2.753409863,9.863544292
8.139881406,0.183843494,9.010834694,-2.492563486,9.351032726
8.144648854,0.596140981,8.50605011,-2.273622036,8.824830293
8.149417031,0.844596863,7.989164352,-2.15779376,8.318423217
8.154184427,0.708058715,7.352527618,-1.524425149,7.542206677
8.158951041,-0.028978109,6.546110153,-0.178958207,6.54862
8.163718489,-1.015340567,5.854750633,1.137683153,6.050069785
8.168486666,-1.748210669,5.416922569,2.035437584,6.045022483
8.173254062,-2.161104679,5.081415176,2.920287371,6.246537597
8.178020729,-2.496067762,4.704109669,4.778738976,7.155092469
8.182788125,-2.932693005,4.222136021,7.639356136,9.207979312
8.187556302,-3.327569008,3.625304222,10.15863323,11.28775333
8.19232375,-3.358944178,2.678621292,11.51141071,12.28698883
8.197090364,-3.035619736,0.767196655,11.9069643,12.31175766
8.201857812,-2.465531826,-3.806329727,11.85399151,12.69189142
8.206625989,-2.491962194,-11.49545479,11.49423122,16.44605448
8.211393385,-2.931824684,-19.86483574,11.75691223,23.26869743
8.216160052,-2.554763317,-27.17795753,13.11543083,30.28502464
8.220927448,-1.326949358,-33.1397934,14.87085247,36.34761277
8.225695625,0.76859808,-37.6705246,16.72328949,41.22290113
8.230463021,3.865463734,-40.93836594,17.74202347,44.78471851
8.235229687,7.962418556,-42.72208023,16.36162949,46.43575312
8.239997083,12.40843678,-42.41334534,11.87128544,45.75793465
8.244765312,15.81861687,-39.38954163,4.218084812,42.65626412
8.249532708,17.23358154,-33.41292572,-7.098843575,38.25981597
8.254299323,16.28121948,-26.22276306,-17.08604431,35.27951701
8.259066771,13.72440243,-20.30921936,-18.67978477,30.81814356
8.263834948,11.53250599,-16.11206245,-14.22182465,24.38970166
8.268602343,10.40487385,-13.12771511,-8.747994423,18.89776998
8.27336901,9.729743958,-10.94768906,-3.713696718,15.1099754
8.278136406,9.416079521,-9.182161331,0.493812084,13.16124958
8.282904583,9.060842514,-8.009643555,4.163256168,12.79007267
8.287672031,7.937582016,-7.588089943,7.438680649,13.26341913
8.292438646,6.245429039,-7.725410461,9.959587097,14.06700842
8.297206041,4.545015335,-8.224650383,11.38816071,14.76456036
8.301974271,3.215170145,-8.697720528,11.58115673,14.83613335
8.306741666,2.417914391,-8.814434052,10.76319122,14.12044061
8.311508281,2.102226257,-8.484006882,9.379467964,12.82077015
8.316275729,1.98111701,-7.821253777,7.76463604,11.19760725
8.321043906,1.959223509,-6.955430984,6.309461594,9.593012172
8.325811302,2.073575497,-6.005970001,5.025904655,8.101302895
8.330577968,1.813166857,-5.127599716,3.86798811,6.673918258
8.335345364,1.360764027,-4.262036324,2.694463253,5.222716207
8.340113541,1.3215909,-3.365463257,1.197238922,3.80871717
8.344880989,1.377545357,-2.568575859,-0.510589361,2.959039481
8.349647604,1.239519596,-1.91100502,-2.394636869,3.304940961
8.354415,0.912568808,-1.308276176,-4.2775774,4.565307963
8.359183229,0.532717466,-0.724513054,-5.598988533,5.670747716
8.363950625,0.271137953,-0.100721359,-6.049870014,6.056780314
8.368717239,0.029268503,0.559849739,-5.874632359,5.901321354
8.373484687,-0.354610682,1.192053795,-5.41108799,5.552172027
8.378252864,-0.81465447,1.866972923,-4.703677177,5.125800307
8.38302026,-1.232624412,2.643714428,-3.789684772,4.782290204
8.387786927,-1.662713766,3.402324677,-3.037492275,4.85456379
8.392554323,-2.00408721,4.154551506,-2.530026436,5.260959753
8.3973225,-2.137526512,5.010180473,-2.189229012,5.870575068
8.402089948,-2.1378932,5.873374939,-2.105886221,6.595595294
8.406856562,-2.084640503,6.66524744,-2.140723944,7.304378719
8.41162401,-2.090048552,7.326267719,-2.099672556,7.902602513
8.416392187,-2.115687609,7.892586231,-1.963525891,8.40383754
8.421159583,-2.125603676,8.412282944,-1.774989843,8.8563697
8.42592625,-2.189179182,8.837658882,-1.550696254,9.23587456
8.430693646,-2.263493061,9.195138931,-1.30015862,9.558472328
8.435461823,-2.370043993,9.489520073,-0.902283609,9.822536101
8.440229271,-2.587737083,9.713641167,-0.33416909,10.05797579
8.444995885,-2.880771399,9.874692917,0.216824055,10.28860616
8.449763281,-3.118320465,9.965376854,0.625777245,10.46060493
8.45453151,-3.170083523,10.00939369,0.908877254,10.5386645
8.459298906,-3.170957565,10.05208397,1.130551457,10.60082594
8.464065521,-3.386524677,10.02414799,1.188079119,10.64723552
8.468832968,-3.744541883,9.906687737,1.103486538,10.64808614
8.473601146,-4.065258503,9.781256676,1.025679231,10.64196066
8.478368541,-4.334113121,9.640803337,0.940560579,10.61198755
8.483135208,-4.565270901,9.466376305,0.803519726,10.54038058
8.487902604,-4.663305283,9.298717499,0.553281069,10.41723011
8.492670781,-4.51185751,9.097084999,0.264712453,10.15794696
8.497438229,-4.281305313,8.780189514,0.021849036,9.768407264
8.502204843,-4.188739777,8.290944099,-0.156067193,9.290298808
8.506972291,-4.166072369,7.627372742,-0.173681021,8.692706081
8.511740468,-3.971203804,6.894997597,-0.074372768,7.95719692
8.516507864,-3.499488354,6.227731228,-0.051812291,7.143790275
8.521274531,-2.87606883,5.644532204,-0.148669601,6.336767186
8.526041927,-2.276071787,5.087836742,-0.278478682,5.580693136
8.530810104,-1.747721195,4.538394928,-0.417088926,4.881139321
8.535577552,-1.267245531,3.965092182,-0.556950867,4.199769222
8.540344166,-0.841884732,3.317750931,-0.721582413,3.498131261
8.545111562,-0.49776876,2.589352608,-0.910580099,2.789565698
8.549879791,-0.239328861,1.775303364,-1.090149641,2.096999422
8.554647187,-0.082748175,0.90213871,-1.190758586,1.496197688
8.559413854,0.029617548,0.020186424,-1.209994674,1.210525424
8.56418125,0.39840579,-0.839640617,-1.176739693,1.499479858
8.568949427,0.974811554,-1.691931725,-1.002954483,2.195178403
8.573716823,1.447452545,-2.589426041,-0.667582631,3.040709236
8.578483489,1.863821745,-3.608803749,-0.207285643,4.066972256
8.583250885,2.307291508,-4.769255638,0.360513449,5.310307278
8.588019114,2.810778618,-6.094738007,0.951724529,6.778796898
8.59278651,3.38345623,-7.642584801,1.520817876,8.495279013
8.597553125,3.74393487,-9.503237724,2.051090717,10.41803958
8.602320573,3.786120415,-11.62101746,2.528542042,12.48103679
8.60708875,3.6940341,-13.80140018,2.939273596,14.5864274
8.611856146,3.36544776,-15.81385994,3.1480093,16.47162309
8.616622812,2.632875681,-17.23860168,2.924912214,17.68209642
8.621390208,1.522598028,-17.36207962,2.196561098,17.56658744
8.626158385,0.857751846,-15.48224068,0.966475844,15.53607383
8.630925833,1.203018904,-12.13301659,-0.516409874,12.20344317
8.635692448,1.902997017,-8.720684052,-1.660572767,9.07905446
8.640459896,2.33065033,-5.975317001,-2.294433117,6.811810886
8.645228073,2.418188095,-3.870251656,-2.553337097,5.229341438
8.649995468,2.283148289,-2.239948273,-2.534528017,4.080927179
8.654762135,1.940714121,-0.952428818,-2.3520329,3.194612764
8.659529531,1.461420298,0.090737343,-1.99784708,2.476969016
8.664297708,0.994134426,0.927936554,-1.554928184,2.065713233
8.669065156,0.591215134,1.590255737,-1.143863916,2.046185061
8.673831771,0.256826639,2.084769726,-0.803726137,2.249044338
8.678599166,-0.0741117,2.392318726,-0.5207268,2.44945664
8.683367396,-0.526142716,2.534501553,-0.266681671,2.60223815
8.688134791,-1.082387805,2.60469532,-0.061155319,2.821301303
8.692901458,-1.67552948,2.667592525,0.088609695,3.151396611
8.697668854,-2.20503211,2.770998955,0.191971183,3.546470746
8.702437031,-2.537533522,2.917122364,0.258425951,3.874979127
8.707204427,-2.647706509,3.074598789,0.285324454,4.067544408
8.711971093,-2.589048147,3.228869915,0.277086377,4.147957099
8.716738489,-2.452413321,3.327324867,0.252313018,4.141145219
8.721506718,-2.301572561,3.276899815,0.305780172,4.016068994
8.726274114,-2.042486429,3.125756264,0.429769278,3.758564176
8.731040729,-1.622617722,3.029485703,0.416243196,3.461781375
8.735808177,-1.19047451,3.016796112,0.163184166,3.24729386
8.740576354,-0.841812372,3.061337948,-0.218543887,3.182483234
8.74534375,-0.548058271,3.139166355,-0.663573206,3.255005787
8.750110416,-0.283279657,3.235855103,-1.121125698,3.436266643
8.754877812,-0.06242466,3.360856056,-1.533371568,3.694655415
8.759645989,0.076028347,3.463883877,-1.878672481,3.941279248
8.764413437,0.143743277,3.528180122,-2.180735111,4.1502196
8.769180052,0.188270807,3.577638149,-2.434761524,4.331628366
8.7739475,0.204658032,3.612219334,-2.578767776,4.442978356
8.778715677,0.178449869,3.639055252,-2.579686165,4.464229854
8.783483073,0.10966897,3.665245533,-2.428789616,4.398303207
8.788249739,-0.030136108,3.690758705,-2.155583143,4.274242236
8.793017135,-0.235866666,3.682121754,-1.875392437,4.13893108
8.797785312,-0.464101434,3.651342869,-1.629346132,4.025228404
8.80255276,-0.73606801,3.60564518,-1.403311014,3.938496551
8.807319375,-1.051255226,3.549882412,-1.214326382,3.896330485
8.812086823,-1.47116375,3.465066433,-1.069519997,3.913423206
8.816855,-1.89483583,3.377604485,-0.973666906,3.993324695
8.821622396,-2.128825426,3.349604607,-0.929036737,4.076132723
8.826389062,-2.202237606,3.364215851,-0.932994306,4.127744801
8.831156458,-2.301899433,3.440494061,-0.975716054,4.252970985
8.835924635,-2.44910717,3.56883955,-0.968505383,4.435396751
8.840692083,-2.757670403,3.725509167,-0.896694124,4.721040664
8.845458698,-3.267158031,3.922690868,-0.888830841,5.18187664
8.850226146,-3.735454559,4.225012779,-0.944433749,5.71806863
8.854994323,-3.974159002,4.658551693,-0.888709128,6.187555864
8.859761718,-3.869342327,5.141674995,-0.669377804,6.469675297
8.864528385,-3.865940332,5.573801041,-0.167800188,6.785345208
8.869295781,-4.202498436,5.842708588,0.350479126,7.205627826
8.874063958,-4.390928268,6.010908127,0.496821165,7.460435566
8.878831406,-4.181302071,6.183628082,0.585576773,7.487552566
8.883598021,-3.504224777,6.374807358,1.042364836,7.348760752
8.888365468,-2.43368578,6.495527267,1.84716928,7.178212542
8.893133646,-1.186917305,6.296794415,2.764768124,6.978705852
8.897901041,0.022339463,5.702263832,3.579437733,6.732658193
8.902667708,0.905071378,4.801012039,3.95694828,6.286995347
8.907435104,1.359892845,3.660654545,3.898257017,5.517799201
8.912203281,1.62983036,2.413178921,3.79840517,4.786194871
8.916970729,2.028893471,1.147311211,3.710158825,4.381553404
8.921737343,2.72647047,-0.13455677,3.557144165,4.483862326
8.926504791,3.745326519,-1.415834427,3.317996025,5.200111103
8.931272968,4.816822052,-2.758664131,2.957521439,6.289589456
8.936040364,5.673581123,-4.234479904,2.605522633,7.543811438
8.940807031,6.195294857,-5.895299911,2.362911463,8.872406099
8.945574427,6.445601463,-7.685498238,2.270789146,10.28441271
8.950342604,6.628684998,-9.492177963,2.403793097,11.82451388
8.955110052,6.795599937,-11.3531599,2.798240185,13.52422147
8.959876666,6.83257103,-13.26546955,3.490511894,15.32450269
8.964644114,6.812477589,-15.06140995,4.539870262,17.14253023
8.969412291,6.803235054,-16.64047623,5.976763725,18.9449508
8.974179687,6.85799408,-17.98598862,7.528192997,20.66885481
8.978946354,7.105904102,-19.01437378,8.823756218,22.13366118
8.98371375,7.51547718,-19.74271774,9.969157219,23.35896823
8.988481927,7.956951141,-20.25497818,10.84087753,24.312586
8.993249375,8.226249695,-20.55867386,11.33198929,24.87457007
8.998015989,8.443912506,-20.53965378,11.52675152,25.02085203
9.002783437,8.667472839,-20.03165054,11.29828358,24.57729279
9.007551614,8.713749886,-19.02654648,10.86544323,23.57958364
9.01231901,8.575141907,-17.7671566,10.44904709,22.324594
9.017085677,8.197015762,-16.44772339,9.897485733,20.87292255
9.021853073,7.33235693,-15.26870823,8.888638496,19.12863831
9.02662125,6.379538059,-14.25333023,7.546120644,17.34358283
9.031388698,5.674565315,-13.41712093,5.99249649,15.75213763
9.036155312,4.927580833,-12.99916363,3.480877399,14.3309391
9.04092276,4.094827652,-13.06598282,-0.281483412,13.69550121
9.045690937,3.441279411,-13.36534119,-3.691817284,14.28650636
9.050458333,3.132074594,-13.42229939,-5.316211224,14.77261364
9.055225,2.861895561,-12.98548603,-5.39906311,14.35141722
9.059992396,2.373163939,-12.12893677,-4.662211895,13.20905878
9.064760573,1.656700134,-10.9886198,-3.209733963,11.56705722
9.069528021,0.713400364,-9.864658356,-1.510764956,10.00514044
9.074294635,-0.127427101,-8.896256447,-0.39541173,8.905951205
9.079062083,-0.648648381,-7.858923912,0.07393837,7.885993702
9.08383026,-1.033595443,-6.681337357,0.06351614,6.761111056
9.088597656,-1.448768854,-5.433000565,-0.354236722,5.633995916
9.093364323,-1.900534868,-4.054136276,-1.06035924,4.601349307
9.098131718,-2.339951515,-2.561432838,-1.736722469,3.879757237
9.102899896,-2.701144695,-1.026492119,-2.316003561,3.703206885
9.107667343,-2.698339462,0.6058321,-2.723762989,3.881617344
9.112433958,-2.299601555,2.337901115,-2.855003357,4.347987248
9.117201406,-1.716904759,4.104979038,-2.744490385,5.227890811
9.121969583,-1.266591787,5.799381733,-2.39665103,6.40164193
9.126736979,-1.158666968,7.433171272,-1.912177324,7.762149601
9.131503646,-1.282494426,9.032668114,-1.2441926,9.20770875
9.136271041,-1.303745747,10.60727501,-0.446648836,10.6964261
9.141039271,-1.092055678,12.1543951,0.191553175,12.20485963
9.145806666,-0.880491436,13.56634521,0.69069767,13.61242267
9.150573281,-0.791537106,14.68545151,1.178460598,14.75390749
9.155340729,-0.82981199,15.39499664,1.549860716,15.49505011
9.160108906,-1.023994684,15.83426857,1.751928449,15.96376771
9.164876302,-0.94902581,16.20212173,2.143265963,16.37079679
9.169642968,-0.751282752,16.48685455,2.833396912,16.7454154
9.174410364,-0.81330204,16.68160057,3.50948,17.06615679
9.179178593,-0.969174862,16.74123764,4.007661343,17.24151058
9.183945989,-1.239481091,16.63262177,4.101702213,17.17569158
9.188712656,-1.592163086,16.39191628,3.824836969,16.90737355
9.193480052,-2.002174616,15.99544144,3.408797503,16.47673361
9.198248229,-2.580486774,15.49848747,2.829807997,15.96464341
9.203015677,-3.242133617,15.00646019,2.123728752,15.49888711
9.207782291,-3.764027119,14.51700783,1.324450374,15.05541714
9.212549687,-4.26275301,14.05653858,0.496509433,14.69706984
9.217317916,-4.873972416,13.65625858,-0.307371557,14.50322319
9.222085312,-5.510731697,13.23982334,-1.225600362,14.39316443
9.226851979,-6.110132217,12.68801498,-2.345916033,14.27665094
9.231619375,-6.409389973,11.89126968,-3.853560925,14.0475089
9.236387552,-6.28799963,10.88115978,-5.849525452,13.86201737
9.241155,-5.814974308,9.889889717,-7.65916872,13.79444491
9.245921614,-4.98477602,9.161176682,-8.274092674,13.31299214
9.250689062,-4.037044525,8.75428772,-7.531147003,12.23329298
9.255457239,-3.260737181,8.642364502,-6.033175945,11.03277314
9.260224635,-2.767585754,8.686203003,-4.422823906,10.13267116
9.264991302,-2.466161489,8.73482132,-2.975772858,9.551663733
9.269758698,-2.195738077,8.771388054,-1.644142747,9.190305733
9.274526927,-1.898880959,8.783875465,-0.441758752,8.997631237
9.279294323,-1.575573802,8.738782883,0.579631686,8.898580334
9.284060937,-1.171301484,8.679128647,1.386030197,8.866808949
9.288828385,-0.686593473,8.65746212,1.87238884,8.884193882
9.293596562,-0.246219993,8.659360886,1.994371653,8.889469811
9.298363958,0.101856709,8.670465469,1.777671099,8.851410101
9.303130625,0.343437433,8.674092293,1.334182501,8.782816708
9.307898021,0.369294763,8.668027878,0.754029155,8.708596091
9.31266625,0.056437016,8.642978668,0.088958502,8.643620712
9.317433646,-0.514895201,8.647016525,-0.60007751,8.683093048
9.322200312,-1.093601346,8.730325699,-1.321801662,8.897286685
9.326967708,-1.551077008,8.859273911,-2.042319775,9.222995401
9.331735885,-1.928670526,8.985900879,-2.675445318,9.572052667
9.336503333,-2.253270626,9.110105515,-3.181018114,9.909093159
9.341269948,-2.548965931,9.200755119,-3.576470137,10.19520773
9.346037396,-2.887459755,9.267419815,-3.812528849,10.42870414
9.350805573,-3.232720852,9.338788033,-3.873592615,10.61452617
9.355572968,-3.520092249,9.424375534,-3.782382488,10.74785192
9.360339635,-3.723320961,9.545625687,-3.561772346,10.84750252
9.365107031,-3.825932503,9.707177162,-3.172474861,10.90557861
9.36987526,-3.818807602,9.837112427,-2.577767849,10.86264054
9.374642656,-3.671380043,9.889874458,-1.843878031,10.70927329
9.379409271,-3.341323137,9.822328568,-1.062960148,10.42940377
9.384176718,-2.796020269,9.617682457,-0.424508959,10.02485676
9.388944896,-2.198336124,9.2927742,0.045488894,9.549366644
9.393712343,-1.877457023,8.816749573,0.491078794,9.027794652
9.398478958,-1.829931021,8.297451019,0.829066217,8.537194607
9.403246354,-1.777750373,7.871190071,1.019235134,8.133564396
9.408014583,-1.720707059,7.530578613,1.231367826,7.822193667
9.412781979,-1.730380058,7.256215096,1.603611112,7.630100999
9.417548646,-1.723115444,7.076434612,2.149371386,7.593737618
9.422316041,-1.665575147,6.974119186,2.729546785,7.67221641
9.427084218,-1.579372764,6.865280151,3.210544109,7.741710622
9.431851666,-1.433260083,6.678048134,3.638458014,7.738794354
9.436618281,-1.25860858,6.135025978,4.258367538,7.573396424
9.441385729,-0.617803454,3.80603075,5.316016197,6.567159157
9.446153906,0.566504955,-4.480560303,6.335135937,7.780121839
9.450921302,1.624731779,-16.3262291,9.557566643,18.98769575
9.455687968,3.076951504,-28.33204651,16.33889961,32.85014658
9.460455364,5.554201126,-41.03170013,22.87941742,47.30663069
9.465223593,8.358653069,-52.2173233,28.04108429,59.85664827
9.469990989,10.68012905,-61.14819336,31.97198868,69.82388393
9.474757656,12.25840092,-66.41430664,32.4318924,74.91966473
9.479525052,12.9065218,-65.64218903,27.98297119,72.51566701
