"Time (s)","Linear Acceleration x (m/s^2)","Linear Acceleration y (m/s^2)","Linear Acceleration z (m/s^2)","Absolute acceleration (m/s^2)"
1.061585490E-1,7.713189125E-1,-2.444989204E0,3.756031036E0,4.547600930E0
1.111311530E-1,2.922017574E-1,-2.727692842E0,3.753907204E0,4.649463346E0
1.161037580E-1,-2.256016731E-1,-2.960666656E0,3.747276306E0,4.781058761E0
1.210763620E-1,-6.755750179E-1,-3.170359612E0,3.621153831E0,4.860075796E0
1.260489660E-1,-9.159693718E-1,-3.367265224E0,3.225100517E0,4.751710043E0
1.310215700E-1,-9.330799580E-1,-3.540009975E0,2.566358566E0,4.470850604E0
1.359941740E-1,-9.217424393E-1,-3.645186424E0,1.878066063E0,4.202871082E0
1.409667780E-1,-8.891892433E-1,-3.628971100E0,1.195874214E0,3.923035036E0
1.459393830E-1,-7.223248482E-1,-3.509164810E0,3.233966827E-1,3.597301248E0
1.507658930E-1,-4.501733780E-1,-3.304794312E0,-6.844635010E-1,3.404821845E0
1.557384970E-1,5.982558727E-1,-2.633585930E0,-2.447273254E0,3.644561883E0
1.607111010E-1,1.001964092E0,-2.169878721E0,-2.473767281E0,3.439742762E0
1.656837060E-1,1.395232201E0,-1.731564760E0,-2.298371315E0,3.198046296E0
1.706563100E-1,1.753200412E0,-1.323738575E0,-2.016777039E0,2.982177916E0
1.756289140E-1,2.009834528E0,-1.025268555E0,-1.790382385E0,2.880291569E0
1.806015180E-1,2.134290457E0,-8.759424686E-1,-1.683237076E0,2.855828779E0
1.855741220E-1,2.133167267E0,-8.501207829E-1,-1.609764099E0,2.804362385E0
1.905467260E-1,1.977348328E0,-8.817446828E-1,-1.485094070E0,2.625430344E0
1.955193310E-1,1.633291721E0,-8.910216093E-1,-1.442914009E0,2.354477053E0
2.004919350E-1,1.248401403E0,-9.252690673E-1,-1.627449989E0,2.250160523E0
2.054645390E-1,9.793688059E-1,-1.004838824E0,-2.079647064E0,2.508743955E0
2.104371430E-1,7.535704970E-1,-1.114720225E0,-2.599985123E0,2.927523239E0
2.154097470E-1,4.249904156E-1,-1.240136504E0,-2.810265541E0,3.100991424E0
2.203823510E-1,1.601541042E-2,-1.348042488E0,-2.851962090E0,3.154546370E0
2.253549560E-1,-2.722615004E-1,-1.394215465E0,-3.044299126E0,3.359422607E0
2.303275600E-1,-4.451367855E-1,-1.340251327E0,-3.243569374E0,3.537677580E0
2.353001640E-1,-5.717456341E-1,-1.216492772E0,-3.311832428E0,3.574210649E0
2.402727680E-1,-6.661710739E-1,-1.050233483E0,-3.331521034E0,3.556094300E0
2.452453720E-1,-7.310254574E-1,-8.472394943E-1,-3.411124229E0,3.589983494E0
2.502179760E-1,-7.503149509E-1,-6.291599274E-1,-3.553869247E0,3.686299142E0
2.551905810E-1,-6.984826326E-1,-3.607867062E-1,-3.692774773E0,3.775530500E0
2.601631850E-1,-5.581197739E-1,-5.229282379E-2,-3.755377769E0,3.796984911E0
2.651357890E-1,-3.320205212E-1,2.910808921E-1,-3.834747314E0,3.860084543E0
2.699645390E-1,-4.302132130E-2,6.593795419E-1,-4.111628532E0,4.164387278E0
2.749371430E-1,5.433765054E-1,1.242373228E0,-5.447186470E0,5.613429407E0
2.799097470E-1,7.078199983E-1,1.366799235E0,-5.963320732E0,6.158761519E0
2.848823510E-1,7.906637192E-1,1.424472928E0,-6.174026489E0,6.385364150E0
2.898549560E-1,8.525481224E-1,1.452126265E0,-6.256664753E0,6.479302649E0
2.948275600E-1,8.752539158E-1,1.431365967E0,-6.281704426E0,6.501898834E0
2.998001640E-1,8.466200233E-1,1.388850093E0,-6.146667957E0,6.358238516E0
3.047727680E-1,7.717378736E-1,1.312886000E0,-5.849451065E0,6.044445943E0
3.097453720E-1,6.652159691E-1,1.163783908E0,-5.397252560E0,5.561226525E0
3.147179760E-1,4.852868915E-1,9.283692837E-1,-4.749996185E0,4.864137812E0
3.196905810E-1,2.292454243E-1,6.243585348E-1,-4.183491230E0,4.236033040E0
3.246631850E-1,-5.387389660E-2,3.233087063E-1,-3.794795513E0,3.808924245E0
3.296357890E-1,-2.829823494E-1,1.075186729E-1,-3.453579903E0,3.466821804E0
3.346083930E-1,-4.161519408E-1,-3.141427040E-2,-3.241265297E0,3.268022341E0
3.395809970E-1,-4.978182912E-1,-1.366697550E-1,-3.082576752E0,3.125504936E0
3.445536010E-1,-4.929113984E-1,-1.779130697E-1,-2.967122078E0,3.013043002E0
3.495262060E-1,-4.011375904E-1,-1.226105690E-1,-2.974189281E0,3.003622247E0
3.544988100E-1,-2.811679840E-1,-8.459138870E-2,-3.024063587E0,3.038284338E0
3.594714140E-1,-9.390151501E-2,-7.343018055E-2,-3.127993584E0,3.130264102E0
3.644440180E-1,2.562877834E-1,9.547424316E-2,-3.400903225E0,3.411882399E0
3.694166220E-1,6.761417389E-1,4.389488697E-1,-3.668328285E0,3.755858912E0
3.743892260E-1,1.017466664E0,8.056950569E-1,-3.796039581E0,4.011770113E0
3.793618310E-1,1.311614156E0,1.119757295E0,-3.847444057E0,4.216279624E0
3.843344350E-1,1.474757552E0,1.285449266E0,-3.889690876E0,4.353961962E0
3.891640180E-1,1.492033005E0,1.357278943E0,-3.927772045E0,4.415400532E0
3.941366220E-1,1.307764530E0,1.459918141E0,-3.791578293E0,4.268216840E0
3.991092260E-1,1.240297675E0,1.591905355E0,-3.478493690E0,4.021494665E0
4.040818310E-1,1.341409922E0,1.802584052E0,-3.118246078E0,3.843455275E0
4.090544350E-1,1.704694510E0,2.124201298E0,-2.805770397E0,3.910314827E0
4.140270390E-1,2.298484564E0,2.569062710E0,-2.533178806E0,4.277862710E0
4.189996430E-1,2.917574167E0,3.030325413E0,-2.240664959E0,4.766098046E0
4.239722470E-1,3.311633825E0,3.373981714E0,-1.914041996E0,5.100414489E0
4.289448510E-1,3.471763372E0,3.596161127E0,-1.669330120E0,5.269931576E0
4.339174560E-1,3.493140459E0,3.783998489E0,-1.741774559E0,5.436400781E0
4.388900600E-1,3.408661127E0,3.899913549E0,-1.831704140E0,5.493945434E0
4.438626640E-1,3.302575111E0,3.846813440E0,-1.442021370E0,5.271091124E0
4.488352680E-1,3.286905527E0,3.715973854E0,-7.792778015E-1,5.021900389E0
4.538078720E-1,3.306473255E0,3.576933622E0,-2.297630310E-1,4.876475221E0
4.587804760E-1,3.232698917E0,3.449385166E0,8.719348907E-2,4.728234662E0
4.637530810E-1,3.053428888E0,3.355371475E0,1.741714478E-1,4.540075044E0
4.687256850E-1,2.830939293E0,3.186836958E0,4.072093964E-2,4.262840048E0
4.736982890E-1,2.461578369E0,2.894201517E0,-2.778854370E-1,3.809591947E0
4.786708930E-1,1.699010372E0,2.559523344E0,-8.441429138E-1,3.185965043E0
4.836434970E-1,4.832528830E-1,2.287482977E0,-1.615742683E0,2.841959911E0
4.886161010E-1,-9.389507174E-1,2.162171841E0,-2.356547832E0,3.333156643E0
4.935887060E-1,-2.094708204E0,2.185874462E0,-3.041205883E0,4.291244907E0
4.985613100E-1,-2.610285282E0,2.284708023E0,-3.691919804E0,5.065940371E0
5.035339140E-1,-2.308950663E0,2.299593210E0,-4.186067581E0,5.304954655E0
5.083627160E-1,-1.324586272E0,2.207504272E0,-4.388944149E0,5.088264404E0
5.133353200E-1,8.850300312E-1,2.024114609E0,-3.884942055E0,4.469126634E0
5.183079240E-1,1.448933601E0,1.960298181E0,-3.099877834E0,3.943528892E0
5.232805280E-1,1.640327454E0,1.858226180E0,-2.118793964E0,3.260822987E0
5.282531330E-1,1.692742229E0,1.649145484E0,-1.118190765E0,2.614461258E0
5.332257370E-1,1.604820132E0,1.314579129E0,-6.419849396E-2,2.075496902E0
5.381983410E-1,1.320894718E0,9.738442898E-1,1.024504662E0,1.934617626E0
5.431709450E-1,9.993699789E-1,6.650592089E-1,1.906425476E0,2.252887525E0
5.481435490E-1,7.095108032E-1,3.340435028E-1,2.555612564E0,2.673227678E0
5.531161530E-1,4.033963680E-1,-7.015585899E-2,2.998462677E0,3.026289626E0
5.580887580E-1,2.352333069E-2,-5.619680882E-1,3.189970016E0,3.239177393E0
5.630613620E-1,-4.827651978E-1,-1.117193699E0,3.180374146E0,3.405284673E0
5.680339660E-1,-1.094352961E0,-1.642709017E0,3.024187088E0,3.611344467E0
5.730065700E-1,-1.818099618E0,-1.967393517E0,2.858247757E0,3.917359278E0
5.779791740E-1,-2.605358601E0,-1.929169655E0,2.459438324E0,4.069204574E0
5.829517780E-1,-3.053883076E0,-1.610011339E0,1.369418144E0,3.713979592E0
5.879243830E-1,-2.894406557E0,-1.384610057E0,-1.731643677E-1,3.213210268E0
5.928969870E-1,-2.411016226E0,-1.385137200E0,-1.564279556E0,3.190387882E0
5.978695910E-1,-1.805081248E0,-1.480748773E0,-2.312656403E0,3.286231105E0
6.028421950E-1,-1.106440663E0,-1.524604559E0,-2.308646202E0,2.979677380E0
6.078147990E-1,-5.303478241E-1,-1.489365101E0,-1.718361378E0,2.335003864E0
6.127874030E-1,-1.963617802E-1,-1.453262329E0,-6.135253906E-1,1.589636044E0
6.177600080E-1,3.561258316E-3,-1.496387362E0,7.071933746E-1,1.655086188E0
6.227326120E-1,1.005780697E-1,-1.684065580E0,1.990329742E0,2.609138806E0
6.275606850E-1,9.480857849E-2,-1.983636856E0,3.220448494E0,3.783529086E0
6.325332890E-1,-2.407221794E-1,-2.763567686E0,5.169845581E0,5.867073960E0
6.375058930E-1,-7.161080837E-1,-3.202763557E0,5.734075546E0,6.606824318E0
6.424784970E-1,-1.262503862E0,-3.603375435E0,5.914799690E0,7.040105532E0
6.474511010E-1,-1.909876585E0,-3.922539711E0,5.727458000E0,7.199841769E0
6.524237060E-1,-2.655010462E0,-4.195861816E0,5.225507736E0,7.208347108E0
6.573963100E-1,-3.273591042E0,-4.468365669E0,4.547498703E0,7.166758997E0
6.623689140E-1,-3.634872913E0,-4.777650833E0,3.861490250E0,7.137881726E0
6.673415180E-1,-3.857953787E0,-5.103932858E0,3.193889618E0,7.150864908E0
6.723141220E-1,-3.965258837E0,-5.339364052E0,2.506366730E0,7.107317377E0
6.772867260E-1,-3.919228554E0,-5.440685272E0,1.739200592E0,6.927209206E0
6.822593310E-1,-3.696866751E0,-5.405370235E0,9.258050919E-1,6.613770953E0
6.872319350E-1,-3.406370640E0,-5.278151512E0,8.046913147E-2,6.282413517E0
6.922045390E-1,-3.131788254E0,-5.119984627E0,-8.821539879E-1,6.066344526E0
6.971771430E-1,-2.832740307E0,-4.948767662E0,-1.909019947E0,6.013241736E0
7.021497470E-1,-2.472002268E0,-4.792322159E0,-2.816267490E0,6.083461964E0
7.071223510E-1,-2.050865173E0,-4.681428909E0,-3.527814865E0,6.210257830E0
7.120949560E-1,-1.646005154E0,-4.580687046E0,-3.894556046E0,6.233746351E0
7.170675600E-1,-1.361789703E0,-4.481044769E0,-3.939676285E0,6.120072111E0
7.220401640E-1,-1.299059868E0,-4.366451263E0,-3.764851570E0,5.909954359E0
7.270127680E-1,-1.477827072E0,-4.213736057E0,-3.441983700E0,5.637978025E0
7.319853720E-1,-1.587725639E0,-4.064557076E0,-3.049253225E0,5.323480267E0
7.369579760E-1,-1.460218906E0,-3.969876051E0,-2.505382061E0,4.916207317E0
7.419305810E-1,-1.228834629E0,-3.994067192E0,-1.773449421E0,4.539573783E0
7.467594350E-1,-9.691014290E-1,-4.136504173E0,-9.359273911E-1,4.350377505E0
7.517320390E-1,-3.908252716E-1,-4.489874840E0,8.665080070E-1,4.589396104E0
7.567046430E-1,-2.441129684E-1,-4.508960724E0,1.933027744E0,4.911915534E0
7.616772470E-1,-1.316318512E-1,-4.459557533E0,2.869145393E0,5.304429811E0
7.666498510E-1,-1.425328255E-1,-4.422630787E0,3.454433918E0,5.613652321E0
7.716224560E-1,-2.615537643E-1,-4.376310349E0,3.687186718E0,5.728511895E0
7.765950600E-1,-4.098939896E-1,-4.308115005E0,3.609203339E0,5.635087996E0
7.815676640E-1,-5.950708389E-1,-4.258015633E0,3.302865505E0,5.421598194E0
7.865402680E-1,-8.650112152E-1,-4.194602013E0,2.907397270E0,5.176474605E0
7.915128720E-1,-1.281937599E0,-3.996695518E0,2.507168293E0,4.889052252E0
7.964854760E-1,-1.784800053E0,-3.701258421E0,2.163630009E0,4.643933671E0
8.014580810E-1,-2.129814148E0,-3.480604649E0,1.857221603E0,4.483301140E0
8.064306850E-1,-2.288150787E0,-3.358600140E0,1.617728233E0,4.374114031E0
8.114032890E-1,-2.369041443E0,-3.271160364E0,1.417703629E0,4.280505936E0
8.163758930E-1,-2.355315208E0,-3.157259464E0,1.102065086E0,4.090274381E0
8.213484970E-1,-2.255851746E0,-3.001594782E0,7.114911079E-1,3.821604104E0
8.263211010E-1,-2.086234093E0,-2.795802355E0,3.690714836E-1,3.507862206E0
8.312937060E-1,-1.833202839E0,-2.683291435E0,1.714229584E-3,3.249721298E0
8.362663100E-1,-1.454463005E0,-2.599524021E0,-2.832350731E-1,2.992191484E0
8.412389140E-1,-9.078021049E-1,-2.286046505E0,-2.770771980E-1,2.475254544E0
8.462115180E-1,-3.751449585E-1,-1.864104748E0,-5.767345428E-2,1.902352879E0
8.511841220E-1,-1.109094620E-1,-1.634774685E0,3.305716515E-1,1.671546229E0
8.561567260E-1,-8.486604691E-2,-1.642352819E0,8.173995018E-1,1.836482228E0
8.611293310E-1,-6.218862534E-2,-1.718801379E0,1.337509632E0,2.178778929E0
8.659590180E-1,3.317070007E-2,-1.785319567E0,1.871597767E0,2.586763316E0
8.709316220E-1,-9.955692291E-2,-2.068582773E0,2.664242268E0,3.374482646E0
8.759042260E-1,-5.528130531E-1,-2.195561409E0,2.842431068E0,3.633938160E0
8.808768310E-1,-1.055728912E0,-2.261367083E0,2.633474350E0,3.628158179E0
8.858494350E-1,-1.446529865E0,-2.284598351E0,2.066561699E0,3.403309497E0
8.908220390E-1,-1.700265408E0,-2.231978893E0,1.387628555E0,3.130198914E0
8.957946430E-1,-1.747344494E0,-2.037710428E0,7.608952522E-1,2.790060600E0
9.007672470E-1,-1.594805717E0,-1.691520333E0,2.615404129E-1,2.339455001E0
9.057398510E-1,-1.284913063E0,-1.233263731E0,-8.306503296E-4,1.780994582E0
9.107124560E-1,-7.856693268E-1,-7.172282934E-1,-5.354309082E-2,1.065157068E0
9.156850600E-1,-1.488270760E-1,-2.024124861E-1,-2.588701248E-2,2.525677146E-1
9.206576640E-1,4.857654572E-1,2.406954765E-1,-3.099441528E-3,5.421365126E-1
9.256302680E-1,9.650454521E-1,5.808048248E-1,-1.781082153E-2,1.126483109E0
9.306028720E-1,1.221199512E0,7.876565456E-1,5.550241470E-2,1.454239183E0
9.355754760E-1,1.341655731E0,8.338593245E-1,1.297292709E-1,1.584989324E0
9.405480810E-1,1.470188618E0,7.280911207E-1,-7.212162018E-3,1.640616734E0
9.455206850E-1,1.640696526E0,4.081478119E-1,-2.333192825E-1,1.706724235E0
9.504932890E-1,1.740182877E0,-2.727501392E-1,-2.855417728E-1,1.784422368E0
9.554658930E-1,1.563753128E0,-1.381390333E0,-1.881835461E-1,2.094988340E0
9.604384970E-1,9.217190742E-1,-2.615526199E0,-7.706141472E-2,2.774253379E0
9.654111010E-1,-1.252160072E-1,-3.579844236E0,1.971755028E-1,3.587456200E0
9.703837060E-1,-1.198982239E0,-4.084130287E0,4.689178467E-1,4.282238031E0
9.753563100E-1,-1.855201244E0,-4.147347450E0,5.434305668E-1,4.575759971E0
9.803289140E-1,-2.020923138E0,-4.041755199E0,6.620695591E-1,4.567083481E0
9.851577680E-1,-1.806046963E0,-3.969568491E0,8.721749783E-1,4.447467687E0
9.901303720E-1,-2.098360062E-1,-3.881380796E0,9.778916836E-1,4.008169181E0
9.951029760E-1,9.751963615E-1,-3.618031025E0,8.929920197E-1,3.852089198E0
1.000075581E0,2.191119194E0,-3.286693335E0,7.090172768E-1,4.013235839E0
1.005048185E0,3.318053722E0,-2.964861631E0,3.767697811E-1,4.465628787E0
1.010020789E0,4.339034557E0,-2.644112825E0,-3.130197525E-2,5.081292487E0
1.014993393E0,5.261016846E0,-2.272846699E0,-3.856737614E-1,5.743942428E0
1.019965997E0,6.084115982E0,-1.880448341E0,-6.103262901E-1,6.397269060E0
1.024938601E0,6.816007137E0,-1.519678593E0,-6.801662445E-1,7.016409512E0
1.029911206E0,7.450128555E0,-1.254813194E0,-6.917438507E-1,7.586664695E0
1.034883810E0,7.970746040E0,-1.151905060E0,-6.461956501E-1,8.079433552E0
1.039856414E0,8.205651283E0,-1.271185875E0,-4.499456882E-1,8.315712695E0
1.044829018E0,8.040849686E0,-1.636600494E0,-1.887538433E-1,8.207883580E0
1.049801622E0,7.643747807E0,-2.078990459E0,5.021572113E-3,7.921433398E0
1.054774226E0,7.037561893E0,-2.439514160E0,1.151845455E-1,7.449280114E0
1.059746831E0,6.164492130E0,-2.638798237E0,2.682371140E-1,6.710899381E0
1.064719435E0,5.107909679E0,-2.725936413E0,4.829580784E-1,5.809881163E0
1.069692039E0,4.010215759E0,-2.840667248E0,6.397316456E-1,4.955852846E0
1.074664643E0,3.319369793E0,-2.949402332E0,7.826645374E-1,4.508852816E0
1.079637247E0,3.214029312E0,-3.109759331E0,8.200638294E-1,4.546767225E0
1.084609851E0,3.334115028E0,-3.348210335E0,9.636282921E-1,4.822386852E0
1.089582456E0,3.480693340E0,-3.481689930E0,1.431098700E0,5.126932259E0
1.094555060E0,3.646188736E0,-3.444653034E0,1.946567297E0,5.380469409E0
1.099527664E0,3.713518143E0,-3.264424324E0,2.307387352E0,5.456255085E0
1.104355789E0,3.662138939E0,-3.030263424E0,2.508842707E0,5.374760437E0
1.109328393E0,3.319309711E0,-2.770328522E0,2.870332718E0,5.189542079E0
1.114300997E0,3.180665970E0,-2.492584705E0,3.321173668E0,5.230660480E0
1.119273601E0,3.235286236E0,-2.147894382E0,3.852885246E0,5.470397794E0
1.124246206E0,3.462689877E0,-1.725432873E0,4.376074791E0,5.841007649E0
1.129218810E0,3.725789547E0,-1.261723995E0,4.785763741E0,6.194916446E0
1.134191414E0,3.873981476E0,-8.762688637E-1,5.061041832E0,6.433484594E0
1.139164018E0,3.945860863E0,-5.759630203E-1,5.320576668E0,6.649066658E0
1.144136622E0,4.003772259E0,-3.222842216E-1,5.656060696E0,6.937224374E0
1.149109226E0,4.007194042E0,-8.169651031E-2,5.982503891E0,7.201015985E0
1.154081831E0,3.968463421E0,1.246881485E-1,6.205800533E0,7.367238921E0
1.159054435E0,3.947747231E0,2.188796997E-1,6.313271999E0,7.449162359E0
1.164027039E0,3.923987865E0,1.519880295E-1,6.316749573E0,7.437883186E0
1.168999643E0,3.868932724E0,1.585197449E-2,6.207277298E0,7.314313581E0
1.173972247E0,3.844993591E0,-1.172575951E-1,5.930762291E0,7.069064041E0
1.178944851E0,3.978390694E0,-1.971192360E-1,5.495860577E0,6.787557144E0
1.183917456E0,4.261176109E0,-2.358255386E-1,5.009368896E0,6.580806353E0
1.188890060E0,4.573408127E0,-2.812085152E-1,4.529779434E0,6.443139130E0
1.193862664E0,4.866876602E0,-2.953963280E-1,4.036694527E0,6.329980217E0
1.198835268E0,5.193355560E0,-2.052097321E-1,3.457611799E0,6.242446024E0
1.203807872E0,5.609107494E0,2.517700195E-4,2.830324173E0,6.282739997E0
1.208780476E0,6.034500122E0,2.772474289E-1,2.318552971E0,6.470529015E0
1.213753081E0,6.275976658E0,5.775279999E-1,2.008168459E0,6.614692900E0
1.218725685E0,6.400401115E0,8.933238983E-1,1.853338242E0,6.722947617E0
1.223554539E0,6.496268749E0,1.267894745E0,1.762201548E0,6.849410124E0
1.228527143E0,6.304679394E0,1.942437649E0,1.741507053E0,6.823114618E0
1.233499747E0,6.111561775E0,2.208613396E0,1.932386637E0,6.779622303E0
1.238472351E0,5.905085087E0,2.435261250E0,2.298907518E0,6.788630423E0
1.243444956E0,5.716434956E0,2.651194096E0,2.802760839E0,6.896515574E0
1.248417560E0,5.452701569E0,2.866124630E0,3.323035717E0,6.999227898E0
1.253390164E0,5.076338291E0,3.061286449E0,3.665824413E0,6.969860386E0
1.258362768E0,4.626441479E0,3.230082035E0,3.788430691E0,6.796292946E0
1.263335372E0,4.113524437E0,3.373277664E0,3.760827541E0,6.514899024E0
1.268307976E0,3.626489162E0,3.505725384E0,3.641176224E0,6.220908166E0
1.273280581E0,3.182010651E0,3.649072647E0,3.408846378E0,5.921246203E0
1.278253185E0,2.867770672E0,3.841192484E0,3.067443132E0,5.691052249E0
1.283225789E0,2.766218185E0,4.119730473E0,2.694675207E0,5.646717337E0
1.288198393E0,2.711632729E0,4.398335457E0,2.277373791E0,5.646657261E0
1.293170997E0,2.555884838E0,4.679377556E0,1.904267430E0,5.661744966E0
1.298143601E0,2.382646561E0,5.034287453E0,1.630257368E0,5.803343336E0
1.303116206E0,2.258536339E0,5.417304993E0,1.454805851E0,6.046870252E0
1.308088810E0,2.180487156E0,5.780271530E0,1.287034392E0,6.310508753E0
1.313061414E0,2.159989834E0,6.120718956E0,1.100723267E0,6.583338692E0
1.318034018E0,2.096588135E0,6.422009945E0,1.024569273E0,6.832835117E0
1.323006622E0,1.907040596E0,6.634251595E0,1.062351227E0,6.984174123E0
1.327979226E0,1.680324554E0,6.753229141E0,1.103696823E0,7.046115321E0
1.332951831E0,1.471665859E0,6.793835640E0,1.029443264E0,7.027215418E0
1.337924435E0,1.257218361E0,6.799365997E0,8.686050177E-1,6.968963384E0
1.342754122E0,1.080108166E0,6.844277382E0,7.102710605E-1,6.965289047E0
1.347726726E0,8.950276375E-1,6.963984489E0,6.290384531E-1,7.049386060E0
1.352699331E0,7.803854942E-1,6.990956306E0,7.340793610E-1,7.072576907E0
1.357671935E0,6.452302933E-1,6.982715607E0,8.790334463E-1,7.067343148E0
1.362644539E0,4.587802887E-1,6.929906368E0,1.141909122E0,7.038326369E0
1.367617143E0,2.810406685E-1,6.796966553E0,1.492878914E0,6.964655457E0
1.372589747E0,1.912646294E-1,6.541606426E0,1.804358721E0,6.788586538E0
1.377562351E0,1.601791382E-2,6.098197937E0,2.097256184E0,6.448779586E0
1.382534956E0,-3.721685410E-1,5.573164940E0,2.352630377E0,6.060820618E0
1.387507560E0,-8.239698410E-1,5.151052475E0,2.392675161E0,5.739090723E0
1.392480164E0,-1.081597328E0,4.905514717E0,2.160232782E0,5.468137991E0
1.397452768E0,-1.069924355E0,4.797463894E0,1.843738556E0,5.249739975E0
1.402425372E0,-9.003171921E-1,4.730511665E0,1.594525337E0,5.072555836E0
1.407397976E0,-6.692252159E-1,4.673127174E0,1.407770276E0,4.926235594E0
1.412370581E0,-4.510154724E-1,4.637039185E0,1.266635299E0,4.828034003E0
1.417343185E0,-2.125506401E-1,4.645792961E0,1.144922495E0,4.789511200E0
1.422315789E0,9.582614899E-2,4.705998421E0,1.092235804E0,4.832037131E0
1.427288393E0,4.759101868E-1,4.771703720E0,1.121870875E0,4.924859507E0
1.432260997E0,8.580808640E-1,4.825880051E0,1.120768547E0,5.028075494E0
1.437233601E0,1.256445408E0,4.903995514E0,1.066877723E0,5.173592092E0
1.442206206E0,1.437770844E0,5.049365997E0,8.840910196E-1,5.323992760E0
1.447178810E0,1.541070938E0,5.116259098E0,4.473649263E-1,5.362009154E0
1.452151414E0,1.943182468E0,5.014041901E0,-1.345543861E-1,5.379096501E0
1.457124018E0,2.382910728E0,4.843728065E0,-8.858548403E-1,5.470347696E0
1.461952924E0,2.658261776E0,4.655697823E0,-1.738380075E0,5.635942083E0
1.466925528E0,3.124529839E0,4.388556957E0,-3.053556204E0,6.192440906E0
1.471898133E0,3.192128658E0,4.294045925E0,-3.634482861E0,6.468228617E0
1.476870737E0,3.058267593E0,4.236013412E0,-4.096091270E0,6.638883490E0
1.481843341E0,2.904875278E0,4.221645832E0,-4.364190102E0,6.731028834E0
1.486815945E0,2.908195019E0,4.202921391E0,-4.441354752E0,6.771098767E0
1.491788549E0,3.005617619E0,4.103402138E0,-4.271375656E0,6.642009965E0
1.496761153E0,3.137304306E0,3.839706182E0,-3.798875332E0,6.246397015E0
1.501733758E0,3.274614334E0,3.431345224E0,-3.164122343E0,5.701657591E0
1.506706362E0,3.405638695E0,3.028883934E0,-2.528498650E0,5.212083866E0
1.511678966E0,3.516367912E0,2.682457447E0,-1.897514105E0,4.812585690E0
1.516651570E0,3.287984371E0,2.364101887E0,-1.507024765E0,4.320988614E0
1.521624174E0,3.105725765E0,1.992751598E0,-1.271931887E0,3.903127232E0
1.526596778E0,3.313045979E0,1.573726654E0,-1.214181185E0,3.863563794E0
1.531569383E0,3.508080482E0,1.217133522E0,-1.214176059E0,3.906695046E0
1.536541987E0,3.686306953E0,8.773674965E-1,-1.005381703E0,3.920385829E0
1.541514591E0,3.998221397E0,5.397586823E-1,-6.782726049E-1,4.091108347E0
1.546487195E0,4.500343800E0,3.061146736E-1,-2.231619358E-1,4.516259709E0
1.551459799E0,5.095763206E0,2.131595612E-1,2.462275028E-1,5.106159774E0
1.556432403E0,5.632976532E0,2.378644943E-1,6.788264513E-1,5.678715478E0
1.561405008E0,6.006705284E0,2.622427940E-1,1.026300907E0,6.099391216E0
1.566377612E0,6.255071640E0,1.327776909E-1,1.362232089E0,6.403063907E0
1.571350216E0,6.451457024E0,-1.320605278E-1,1.684069753E0,6.668945092E0
1.576322820E0,6.557135105E0,-3.631286621E-1,1.966010451E0,6.855149911E0
1.581150945E0,6.202576637E0,-3.743529320E-1,2.249198914E0,6.608403197E0
1.586123549E0,3.979554176E0,-1.126303673E-1,2.569616318E0,4.738403219E0
1.591096153E0,3.286637306E0,-2.814974785E-1,2.828413248E0,4.345244195E0
1.596068758E0,3.161814213E0,-5.124564171E-1,3.151342630E0,4.493399723E0
1.601041362E0,3.252157688E0,-6.766800880E-1,3.376310349E0,4.736443512E0
1.606013966E0,3.246505260E0,-7.219262123E-1,3.401857615E0,4.757479279E0
1.610986570E0,3.135500431E0,-6.870865822E-1,3.509541035E0,4.756083389E0
1.615959174E0,3.005312920E0,-6.253170967E-1,3.862780571E0,4.933964021E0
1.620931778E0,2.810887337E0,-5.700931549E-1,4.166611671E0,5.058334375E0
1.625904383E0,2.531198978E0,-5.117592812E-1,4.446945667E0,5.142391622E0
1.630876987E0,2.209745407E0,-4.882640839E-1,4.672821522E0,5.191978193E0
1.635849591E0,1.920748711E0,-5.185179710E-1,4.741820812E0,5.142275869E0
1.640822195E0,1.861697197E0,-5.361437798E-1,4.676032066E0,5.061486194E0
1.645794799E0,2.097858429E0,-5.588374138E-1,4.476363182E0,4.975051415E0
1.650767403E0,2.467439651E0,-6.446542740E-1,4.051697731E0,4.787493297E0
1.655740008E0,2.823516846E0,-8.131461143E-1,3.418891191E0,4.508022955E0
1.660712612E0,3.132093906E0,-1.073783875E0,2.752558708E0,4.305763984E0
1.665685216E0,3.316736221E0,-1.452283382E0,2.107162952E0,4.189272239E0
1.670657820E0,3.316061974E0,-1.909480572E0,1.586282969E0,4.142303311E0
1.675630424E0,3.200443745E0,-2.415645599E0,1.221105576E0,4.191572814E0
1.680603028E0,2.961507320E0,-2.828571796E0,1.002212524E0,4.216132583E0
1.685575633E0,2.683427334E0,-3.093109131E0,9.464738369E-1,4.202846544E0
1.690548237E0,2.654870033E0,-3.477453232E0,9.245445728E-1,4.471666193E0
1.695520841E0,2.889217377E0,-3.974499702E0,9.171977043E-1,4.998547445E0
1.700349747E0,3.075635910E0,-4.322070122E0,1.030813932E0,5.403924847E0
1.705322351E0,2.924965858E0,-4.449916840E0,1.941645861E0,5.668083786E0
1.710294956E0,2.731791496E0,-4.420864105E0,2.587265730E0,5.805227659E0
1.715267560E0,2.561195374E0,-4.412064552E0,3.236223936E0,6.041455182E0
1.720240164E0,2.406455040E0,-4.502029419E0,3.789140940E0,6.357427452E0
1.725212768E0,2.177273750E0,-4.687819958E0,4.252163887E0,6.693061681E0
1.730185372E0,1.871828079E0,-4.837557316E0,4.610351562E0,6.939815752E0
1.735157976E0,1.531163216E0,-4.874681473E0,4.806102276E0,7.014670294E0
1.740130581E0,1.119853020E0,-4.818180561E0,4.891990662E0,6.957047315E0
1.745103185E0,6.669158936E-1,-4.677659988E0,4.920267582E0,6.821606325E0
1.750075789E0,3.059539795E-1,-4.479678631E0,4.855660439E0,6.613513950E0
1.755048393E0,8.653831482E-2,-4.265295029E0,4.684353352E0,6.335881697E0
1.760020997E0,-4.225921631E-2,-4.054111004E0,4.473920345E0,6.037678787E0
1.764993601E0,-1.931333542E-1,-3.839262486E0,4.262922287E0,5.740186700E0
1.769966206E0,-3.448276520E-1,-3.626009464E0,4.056314945E0,5.451654949E0
1.774938810E0,-4.903430939E-1,-3.424181461E0,3.837540150E0,5.166446499E0
1.779911414E0,-7.134819031E-1,-3.229298592E0,3.611819029E0,4.897209666E0
1.784884018E0,-9.378414154E-1,-3.082058430E0,3.346550226E0,4.645215722E0
1.789856622E0,-1.242357254E0,-2.960896492E0,3.080778837E0,4.449894137E0
1.794829226E0,-1.624472618E0,-2.849040508E0,2.841155052E0,4.339136450E0
1.799801831E0,-2.036134720E0,-2.781985760E0,2.599311113E0,4.317604385E0
1.804774435E0,-2.443824291E0,-2.768888950E0,2.324785709E0,4.363903273E0
1.809747039E0,-2.847362518E0,-2.787520409E0,2.010848284E0,4.463323219E0
1.814719643E0,-3.325254440E0,-2.784455776E0,1.715118647E0,4.663919278E0
1.819549278E0,-3.784645557E0,-2.754919767E0,1.430609703E0,4.894871708E0
1.824521883E0,-4.388140202E0,-2.657263041E0,8.993008137E-1,5.208220737E0
1.829494487E0,-4.640042782E0,-2.624833345E0,6.283204556E-1,5.367917073E0
1.834467091E0,-4.908908367E0,-2.528187037E0,4.306232929E-1,5.538460749E0
1.839439695E0,-5.142121792E0,-2.424526691E0,2.414681911E-1,5.690171622E0
1.844412299E0,-5.361104012E0,-2.335217953E0,1.412470341E-1,5.849327298E0
1.849384903E0,-5.489513397E0,-2.250587225E0,1.319921017E-1,5.934418431E0
1.854357508E0,-5.529921532E0,-2.201454401E0,9.382557869E-2,5.952750361E0
1.859330112E0,-5.597075462E0,-2.144711256E0,4.053068161E-2,5.994053957E0
1.864302716E0,-5.676499367E0,-2.030294180E0,-7.147312164E-2,6.029083506E0
1.869275320E0,-5.720329285E0,-1.913389921E0,-2.785499096E-1,6.038279405E0
1.874247924E0,-5.740700722E0,-1.834761858E0,-5.852253437E-1,6.055120524E0
1.879220528E0,-5.764137268E0,-1.777726412E0,-9.717152119E-1,6.109813425E0
1.884193133E0,-5.762286186E0,-1.699488401E0,-1.339182734E0,6.155129025E0
1.889165737E0,-5.742796898E0,-1.614531279E0,-1.693500042E0,6.201158751E0
1.894138341E0,-5.668042183E0,-1.533079386E0,-2.021671057E0,6.210007122E0
1.899110945E0,-5.423877716E0,-1.369829893E0,-2.201670170E0,6.011841228E0
1.904083549E0,-5.333173275E0,-1.246980429E0,-2.131217480E0,5.877055837E0
1.909056153E0,-5.514842033E0,-1.257334709E0,-2.004451275E0,6.001016425E0
1.914028758E0,-5.703020096E0,-1.326329231E0,-1.888631344E0,6.152277285E0
1.919001362E0,-5.804585457E0,-1.494281530E0,-1.762123942E0,6.247493130E0
1.923973966E0,-5.693581581E0,-1.737267256E0,-1.812521935E0,6.222556107E0
1.928946570E0,-5.256224155E0,-1.776492596E0,-1.955626607E0,5.882881415E0
1.933919174E0,-4.918064117E0,-1.643486261E0,-1.853325486E0,5.506652078E0
1.938748081E0,-5.074583054E0,-1.691425800E0,-1.553372622E0,5.570034193E0
1.943720685E0,-5.744031906E0,-2.309165478E0,-1.272159696E0,6.320169146E0
1.948693289E0,-5.936054230E0,-2.653001547E0,-1.191237569E0,6.610159149E0
1.953665893E0,-6.033987045E0,-2.812218189E0,-1.011805296E0,6.733596421E0
1.958638497E0,-6.069335938E0,-2.818472385E0,-8.409759998E-1,6.744469285E0
1.963611101E0,-6.059124947E0,-2.789217949E0,-8.597661257E-1,6.725468733E0
1.968583706E0,-5.991508484E0,-2.748546362E0,-9.700495005E-1,6.662858024E0
1.973556310E0,-5.833100796E0,-2.720682383E0,-1.060076356E0,6.523108109E0
1.978528914E0,-5.564805984E0,-2.753471136E0,-1.102239966E0,6.305838714E0
1.983501518E0,-5.251170158E0,-2.858962536E0,-1.155050874E0,6.089548204E0
1.988474122E0,-4.928017139E0,-2.984647274E0,-1.238238931E0,5.892937122E0
1.993446726E0,-4.569129467E0,-3.111673117E0,-1.351924419E0,5.690971209E0
1.998419331E0,-4.224760532E0,-3.263985395E0,-1.515155315E0,5.549585376E0
2.003391935E0,-3.973552227E0,-3.500779390E0,-1.713585138E0,5.566053150E0
2.008364539E0,-3.829367638E0,-3.859375477E0,-1.925938964E0,5.767848513E0
2.013337143E0,-3.736874104E0,-4.264848232E0,-2.099696398E0,6.046642330E0
2.018309747E0,-3.624290466E0,-4.664126396E0,-2.239434242E0,6.317010539E0
2.023282351E0,-3.551385403E0,-5.032786369E0,-2.406804085E0,6.613167382E0
2.028254956E0,-3.616040230E0,-5.348741531E0,-2.646283865E0,6.977650121E0
2.033227560E0,-3.712997913E0,-5.609173775E0,-3.011516094E0,7.370102654E0
2.038200164E0,-3.730242729E0,-5.811638832E0,-3.479346991E0,7.732768729E0
2.043172768E0,-3.654015064E0,-5.968164444E0,-4.007434845E0,8.064139567E0
2.048145372E0,-3.537338257E0,-6.136118889E0,-4.508559227E0,8.395940880E0
2.053117976E0,-3.356669426E0,-6.308516502E0,-4.910282135E0,8.670379504E0
2.057946101E0,-3.069684505E0,-6.472554207E0,-5.200515747E0,8.852247452E0
2.062918706E0,-2.442175388E0,-6.615093231E0,-5.341008186E0,8.845905693E0
2.067891310E0,-2.122291088E0,-6.546207428E0,-5.167566299E0,8.605852230E0
2.072863914E0,-1.765149593E0,-6.534051895E0,-4.863106728E0,8.334230276E0
2.077836518E0,-1.387184143E0,-6.621722698E0,-4.436473846E0,8.090351756E0
2.082809122E0,-1.038168907E0,-6.766353607E0,-3.877851009E0,7.867595838E0
2.087781726E0,-8.226613998E-1,-6.882129669E0,-3.273172855E0,7.665124989E0
2.092754331E0,-7.304153442E-1,-6.883416653E0,-2.765255928E0,7.453963492E0
2.097726935E0,-6.845302582E-1,-6.830298424E0,-2.428767443E0,7.281515606E0
2.102699539E0,-6.872024536E-1,-6.782424450E0,-2.280118465E0,7.188356477E0
2.107672143E0,-7.764835358E-1,-6.806221008E0,-2.332735300E0,7.236658419E0
2.112644747E0,-9.188289642E-1,-6.891660690E0,-2.620936155E0,7.430244953E0
2.117617351E0,-9.877920151E-1,-6.966835022E0,-3.094754457E0,7.687003866E0
2.122589956E0,-9.075813293E-1,-6.993906975E0,-3.694463491E0,7.961626664E0
2.127562560E0,-7.077016830E-1,-6.980628967E0,-4.298364162E0,8.228362955E0
2.132535164E0,-4.939050674E-1,-6.953772545E0,-4.730435848E0,8.424720656E0
2.137507768E0,-3.167142868E-1,-6.997206688E0,-4.924756050E0,8.562384687E0
2.142480372E0,-8.056545258E-2,-7.063366890E0,-4.783531666E0,8.531108827E0
2.147452976E0,2.787990570E-1,-7.100258827E0,-4.350334167E0,8.331675203E0
2.152425581E0,7.801380157E-1,-7.104206085E0,-3.662569046E0,8.030739159E0
2.157398185E0,1.470843315E0,-6.926119804E0,-2.648677349E0,7.559762384E0
2.162370789E0,2.099706650E0,-6.653224945E0,-1.504665852E0,7.137099517E0
2.167343393E0,2.349446297E0,-6.515004158E0,-4.186383486E-1,6.938330862E0
2.172315997E0,2.266942024E0,-6.536597252E0,6.432609558E-1,6.948374949E0
2.177144903E0,1.976313591E0,-6.601917267E0,1.584366083E0,7.071162768E0
2.182117508E0,1.013061523E0,-6.121731758E0,2.840287685E0,6.824157641E0
2.187090112E0,7.112979889E-1,-5.607616425E0,3.229268789E0,6.509952666E0
2.192062716E0,7.230777740E-1,-5.205734253E0,3.341821909E0,6.228184667E0
2.197035320E0,1.028301239E0,-5.019056797E0,3.084981203E0,5.980421690E0
2.202007924E0,1.434855461E0,-5.030890465E0,2.481429100E0,5.790177842E0
2.206980528E0,1.777300835E0,-5.114503860E0,1.674526811E0,5.667538093E0
2.211953133E0,1.990923882E0,-5.171825409E0,6.724309325E-1,5.582447431E0
2.216925737E0,2.080679893E0,-5.195353985E0,-4.022797942E-1,5.610950087E0
2.221898341E0,2.044639587E0,-5.194195747E0,-1.151990056E0,5.699763293E0
2.226870945E0,1.952721596E0,-5.163185120E0,-1.296544313E0,5.670328859E0
2.231843549E0,1.903457642E0,-5.094784737E0,-9.300495982E-1,5.517696509E0
2.236816153E0,1.966180801E0,-5.017538071E0,-5.673497915E-1,5.418804390E0
2.241788758E0,2.052527428E0,-4.904812813E0,-3.805406392E-1,5.330559891E0
2.246761362E0,2.081498146E0,-4.670392036E0,-2.262548804E-1,5.118240672E0
2.251733966E0,2.125060081E0,-4.342987061E0,-1.804805398E-1,4.838387147E0
2.256706570E0,2.249965668E0,-3.985174179E0,-1.660801768E-1,4.579469551E0
2.261679174E0,2.448594093E0,-3.654872894E0,-1.489464045E-1,4.401805759E0
2.266651778E0,2.577512741E0,-3.445123672E0,-1.571515799E-1,4.305478564E0
2.271624383E0,2.546148300E0,-3.381810188E0,-2.084680796E-1,4.238274443E0
2.276596987E0,2.466811180E0,-3.211805820E0,-3.036644459E-1,4.061165611E0
2.281569591E0,2.325218201E0,-2.882913589E0,-3.249003291E-1,3.717982069E0
2.286542195E0,2.145255089E0,-2.577428341E0,-9.836751223E-2,3.354837167E0
2.291514799E0,1.993700981E0,-2.307624340E0,2.750636935E-1,3.061965665E0
2.296344435E0,1.816369057E0,-2.061523914E0,6.128016114E-1,2.815067178E0
2.301317039E0,1.696687698E0,-1.305675507E0,1.163298368E0,2.436555103E0
2.306289643E0,1.744532585E0,-8.375239372E-1,1.407607079E0,2.392947549E0
2.311262247E0,1.753870964E0,-4.153490067E-1,1.580687761E0,2.397321830E0
2.316234851E0,1.679325104E0,-5.601406097E-3,1.723255038E0,2.406194528E0
2.321207456E0,1.504513741E0,3.968081474E-1,1.820977926E0,2.395199138E0
2.326180060E0,1.287176609E0,7.610993385E-1,1.899753451E0,2.417676364E0
2.331152664E0,1.113455772E0,1.113714218E0,2.002355576E0,2.547463634E0
2.336125268E0,9.952759743E-1,1.445275307E0,2.028449535E0,2.682163771E0
2.341097872E0,9.180564880E-1,1.729498863E0,1.945229292E0,2.760056346E0
2.346070476E0,7.720479965E-1,1.990788460E0,1.758539677E0,2.766181230E0
2.351043081E0,5.146527290E-1,2.219973087E0,1.583496094E0,2.774996904E0
2.356015685E0,2.563791275E-1,2.419917107E0,1.498787284E0,2.857987471E0
2.360988289E0,1.073489189E-1,2.557457447E0,1.434983253E0,2.934499842E0
2.365960893E0,5.561685562E-2,2.652097702E0,1.390127063E0,2.994857043E0
2.370933497E0,2.440214157E-2,2.792135239E0,1.385819435E0,3.117227961E0
2.375906101E0,-9.493827820E-4,3.034440279E0,1.481459141E0,3.376766189E0
2.380878706E0,4.839372635E-2,3.347212791E0,1.673982620E0,3.742778812E0
2.385851310E0,1.791825294E-1,3.639227867E0,1.883975148E0,4.101883495E0
2.390823914E0,3.335647583E-1,3.926919937E0,2.039562464E0,4.437542190E0
2.395796518E0,4.632496834E-1,4.238515377E0,2.221523762E0,4.807783345E0
2.400769122E0,5.751309395E-1,4.523560524E0,2.382165432E0,5.144714526E0
2.405741726E0,7.072067261E-1,4.779528618E0,2.471007586E0,5.426777465E0
2.410714331E0,8.638205528E-1,5.049146652E0,2.652119160E0,5.768344988E0
2.415543237E0,9.505610466E-1,5.295671463E0,2.794066668E0,6.062549884E0
2.420515841E0,7.559537888E-1,5.479363441E0,2.722859859E0,6.165132251E0
2.425488445E0,5.686607361E-1,5.477553368E0,2.839307547E0,6.195856137E0
2.430461049E0,5.394582748E-1,5.357809544E0,2.916222095E0,6.123845985E0
2.435433653E0,6.993141174E-1,5.173190117E0,2.775070429E0,5.912017600E0
2.440406258E0,6.062197685E-1,5.012597084E0,2.493675947E0,5.631345458E0
2.445378862E0,3.635449409E-1,4.940559387E0,2.337446928E0,5.477677439E0
2.450351466E0,3.107466698E-1,4.956745148E0,2.515614510E0,5.567243691E0
2.455324070E0,3.999700546E-1,5.022966385E0,2.773547649E0,5.751759201E0
2.460296674E0,5.210347176E-1,5.103279114E0,2.922242641E0,5.903764642E0
2.465269278E0,7.903165817E-1,5.201940536E0,2.993171453E0,6.053417299E0
2.470241883E0,1.249686241E0,5.368482590E0,2.901017904E0,6.228822192E0
2.475214487E0,1.740075588E0,5.609213829E0,2.891806126E0,6.546272642E0
2.480187091E0,2.107935905E0,5.887789726E0,3.032115459E0,6.950049338E0
2.485159695E0,2.360399723E0,6.139507294E0,2.999098301E0,7.229082050E0
2.490132299E0,2.547809124E0,6.304741383E0,2.848218679E0,7.372478883E0
2.495104903E0,2.710866928E0,6.390875340E0,2.749017477E0,7.466537631E0
2.500077508E0,2.902095318E0,6.460195541E0,2.741748333E0,7.594304944E0
2.505050112E0,3.052176476E0,6.531940460E0,2.749568939E0,7.716356444E0
2.510022716E0,3.163712025E0,6.570424557E0,2.698244095E0,7.775607618E0
2.514995320E0,3.422967434E0,6.539790630E0,2.730690956E0,7.870339296E0
2.519967924E0,3.779573441E0,6.414030075E0,2.724992990E0,7.927833499E0
2.524940528E0,4.075712681E0,6.243602753E0,2.623854160E0,7.904341835E0
2.529913133E0,4.292013168E0,6.178911209E0,2.585199833E0,7.955097670E0
2.534741258E0,4.524293423E0,6.218953133E0,2.573151588E0,8.109606534E0
2.539713862E0,4.985452652E0,6.321647644E0,2.542008162E0,8.442734899E0
2.544686466E0,5.267700672E0,6.285436153E0,2.375272751E0,8.537991488E0
2.549659070E0,5.650524139E0,6.193978786E0,2.155045271E0,8.656674672E0
2.554631674E0,6.085536480E0,6.047160149E0,1.801007986E0,8.766158217E0
2.559604278E0,6.522133827E0,5.868771076E0,1.480673552E0,8.897926600E0
2.564576883E0,6.919554234E0,5.627751350E0,1.166189194E0,8.995099404E0
2.569549487E0,7.237480640E0,5.295732975E0,7.559075356E-1,8.999850552E0
2.574522091E0,7.442933083E0,4.904173851E0,3.963715434E-1,8.922179354E0
2.579494695E0,7.536573887E0,4.496485233E0,1.380317509E-1,8.777093948E0
2.584467299E0,7.621851921E0,4.096905708E0,-5.720379949E-2,8.653353995E0
2.589439903E0,7.649393082E0,3.705926418E0,-1.654632390E-1,8.501440067E0
2.594412508E0,7.481711388E0,3.345675468E0,-1.465442181E-1,8.197013166E0
2.599385112E0,7.234601498E0,3.042842388E0,-5.830645561E-3,7.848463711E0
2.604357716E0,7.030533791E0,2.826270580E0,2.129987776E-1,7.580341632E0
2.609330320E0,6.902796268E0,2.702891827E0,4.404136837E-1,7.426182381E0
2.614302924E0,6.843772411E0,2.662748337E0,6.145307422E-1,7.369199248E0
2.619275528E0,6.764849663E0,2.691259384E0,8.331370354E-1,7.328041031E0
2.624248133E0,6.618441582E0,2.766850471E0,1.255188346E0,7.282494647E0
2.629220737E0,6.452361584E0,2.889292717E0,1.776296616E0,7.289458970E0
2.634193341E0,6.331012726E0,2.998607635E0,2.263948202E0,7.361985557E0
2.639165945E0,6.201683044E0,3.042171478E0,2.724625111E0,7.425581585E0
2.644138549E0,6.016800880E0,3.048897266E0,3.145603657E0,7.442613099E0
2.649111153E0,5.852951050E0,3.006879807E0,3.502180815E0,7.454101731E0
2.653940008E0,5.722783566E0,2.892605782E0,3.798867941E0,7.453107914E0
2.658912612E0,5.446801662E0,2.515010357E0,4.069425106E0,7.249354877E0
2.663885216E0,5.229723930E0,2.296179295E0,3.870186329E0,6.899332863E0
2.668857820E0,5.011920929E0,2.142781258E0,3.606381655E0,6.535812999E0
2.673830424E0,4.824550152E0,2.104945660E0,3.319407225E0,6.222985194E0
2.678803028E0,4.674593449E0,2.182367802E0,2.995939255E0,5.965752689E0
2.683775633E0,4.609229088E0,2.338584423E0,2.649065256E0,5.807884005E0
2.688748237E0,4.720643520E0,2.544121742E0,2.299058676E0,5.834612368E0
2.693720841E0,5.007410526E0,2.745498180E0,1.897242427E0,6.017594973E0
2.698693445E0,5.413108826E0,2.903639317E0,1.392710209E0,6.298611765E0
2.703666049E0,5.919701576E0,3.029759407E0,8.469552398E-1,6.703703603E0
2.708638653E0,6.449835777E0,3.051707745E0,3.043702841E-1,7.141844508E0
2.713611258E0,6.867012978E0,2.938409805E0,-1.672627926E-1,7.471150933E0
2.718583862E0,7.166284561E0,2.778073311E0,-3.892545998E-1,7.695767985E0
2.723556466E0,7.421768188E0,2.646978855E0,-4.478440881E-1,7.892382684E0
2.728529070E0,7.533501148E0,2.487950802E0,-6.455957890E-1,7.959920393E0
2.733501674E0,7.590282917E0,2.246053696E0,-8.597534895E-1,7.962181110E0
2.738474278E0,7.714320183E0,1.938158035E0,-8.990821242E-1,8.004719928E0
2.743446883E0,7.829263210E0,1.557184696E0,-8.595142365E-1,8.028757769E0
2.748419487E0,7.966433525E0,1.139047146E0,-7.651563883E-1,8.083746397E0
2.753392091E0,8.126036644E0,7.123956680E-1,-5.923770666E-1,8.178685085E0
2.758364695E0,8.267587662E0,2.603206635E-1,-3.392609954E-1,8.278639418E0
2.763337299E0,8.343692780E0,-1.980814934E-1,3.370761871E-2,8.346111770E0
2.768309903E0,8.266785622E0,-6.170639992E-1,5.347976685E-1,8.307016374E0
2.773139591E0,8.061471939E0,-9.728369713E-1,1.079926848E0,8.191457965E0
2.778112195E0,7.681211472E0,-1.518290043E0,2.158534288E0,8.121913851E0
2.783084799E0,7.430157661E0,-1.796414375E0,2.755698681E0,8.125775206E0
2.788057403E0,7.160000801E0,-2.020462036E0,3.303783417E0,8.140200438E0
2.793030008E0,6.885242939E0,-2.212019920E0,3.745049477E0,8.144016088E0
2.798002612E0,6.586978912E0,-2.394914627E0,4.074712753E0,8.107230802E0
2.802975216E0,6.279638290E0,-2.602690697E0,4.323592663E0,8.056134894E0
2.807947820E0,6.013374329E0,-2.833102703E0,4.467965126E0,8.009360406E0
2.812920424E0,5.773751259E0,-3.060011864E0,4.515208721E0,7.942731646E0
2.817893028E0,5.484375000E0,-3.302571774E0,4.612938881E0,7.890789224E0
2.822865633E0,5.093146324E0,-3.579487324E0,4.682345867E0,7.789559153E0
2.827838237E0,4.607749939E0,-3.873608112E0,4.600015640E0,7.576037434E0
2.832810841E0,4.059791565E0,-4.129470825E0,4.438865185E0,7.296434813E0
2.837783445E0,3.504678726E0,-4.320418358E0,4.321164608E0,7.044235326E0
2.842756049E0,2.964192390E0,-4.458138466E0,4.263874054E0,6.844125734E0
2.847728653E0,2.421774864E0,-4.547193527E0,4.228929520E0,6.665268738E0
2.852701258E0,1.887236595E0,-4.611136436E0,4.266513348E0,6.559525695E0
2.857673862E0,1.351264000E0,-4.682940483E0,4.250086784E0,6.466767635E0
2.862646466E0,7.878084183E-1,-4.750095367E0,4.139333725E0,6.349656037E0
2.867619070E0,2.234010696E-1,-4.778606415E0,4.030112267E0,6.255141260E0
2.872591674E0,-2.964782715E-1,-4.758656025E0,3.915049314E0,6.169304472E0
2.877564278E0,-7.766065598E-1,-4.699504852E0,3.779227495E0,6.080380257E0
2.882536883E0,-1.217153549E0,-4.620323181E0,3.615542412E0,5.991743986E0
2.887509487E0,-1.606244087E0,-4.544773102E0,3.317416668E0,5.851515698E0
2.892338341E0,-1.948801994E0,-4.442865849E0,2.923921824E0,5.664468642E0
2.897310945E0,-2.361579895E0,-4.080995560E0,2.164167166E0,5.187986496E0
2.902283549E0,-2.563372135E0,-3.974570036E0,1.913594246E0,5.101953215E0
2.907256153E0,-2.760231018E0,-3.848546982E0,1.707188010E0,5.034350012E0
2.912228758E0,-2.928388596E0,-3.722277164E0,1.496950865E0,4.967058380E0
2.917201362E0,-3.099071026E0,-3.641343832E0,1.256731391E0,4.943986237E0
2.922173966E0,-3.301017761E0,-3.598583698E0,9.316719770E-1,4.971371598E0
2.927146570E0,-3.498337269E0,-3.586670876E0,5.867893696E-1,5.044491390E0
2.932119174E0,-3.628904819E0,-3.610217094E0,3.061357737E-1,5.127995395E0
2.937091778E0,-3.726274490E0,-3.666573524E0,1.181454062E-1,5.229038279E0
2.942064383E0,-3.857413769E0,-3.724421501E0,1.788610220E-2,5.362021672E0
2.947036987E0,-4.027029514E0,-3.773918152E0,-6.620777398E-2,5.519402902E0
2.952009591E0,-4.165792942E0,-3.807897568E0,-8.191218972E-2,5.644521621E0
2.956982195E0,-4.288131714E0,-3.835883379E0,-3.914675862E-2,5.753573443E0
2.961954799E0,-4.420406818E0,-3.876949072E0,-3.128354251E-2,5.879771187E0
2.966927403E0,-4.564981937E0,-3.954676151E0,-1.563396305E-2,6.039765556E0
2.971900008E0,-4.740976334E0,-4.059205055E0,2.441991121E-2,6.241361919E0
2.976872612E0,-4.936392784E0,-4.163812637E0,5.310806632E-2,6.458183171E0
2.981845216E0,-5.112996578E0,-4.265842915E0,8.961188048E-2,6.659442925E0
2.986817820E0,-5.261319160E0,-4.365127563E0,1.218438298E-1,6.837445713E0
2.991790424E0,-5.388661385E0,-4.456810951E0,1.642327309E-1,6.994841511E0
2.996763028E0,-5.478401661E0,-4.543219566E0,2.190573215E-1,7.120513668E0
3.001735633E0,-5.533091545E0,-4.626799583E0,2.623572648E-1,7.217423901E0
3.006708237E0,-5.567210674E0,-4.705155849E0,3.201768398E-1,7.296220903E0
3.011536362E0,-5.582722187E0,-4.773107052E0,3.461224735E-1,7.353172017E0
3.016508966E0,-5.602192402E0,-4.726692200E0,3.345864415E-1,7.337446896E0
3.021481570E0,-5.582341671E0,-4.740307808E0,3.524380624E-1,7.331934890E0
3.026454174E0,-5.485062122E0,-4.797303677E0,3.685341477E-1,7.296289911E0
3.031426778E0,-5.360726833E0,-4.904778004E0,4.163458645E-1,7.277883162E0
3.036399383E0,-5.247676373E0,-5.038807869E0,4.692069888E-1,7.290257008E0
3.041371987E0,-5.134002209E0,-5.180385113E0,5.171161294E-1,7.311756129E0
3.046344591E0,-5.017370701E0,-5.334403515E0,5.957362652E-1,7.347432974E0
3.051317195E0,-4.955190182E0,-5.500691891E0,6.905142665E-1,7.435612346E0
3.056289799E0,-4.949796200E0,-5.679051876E0,7.609398961E-1,7.571733101E0
3.061262403E0,-4.946160793E0,-5.893125057E0,7.880226970E-1,7.733977586E0
3.066235008E0,-4.901307583E0,-6.161855221E0,8.172484636E-1,7.915754597E0
3.071207612E0,-4.834478855E0,-6.446822643E0,8.651993275E-1,8.104460369E0
3.076180216E0,-4.767273426E0,-6.726286411E0,8.792715073E-1,8.291136423E0
3.081152820E0,-4.666278839E0,-7.028732777E0,8.548407555E-1,8.479858216E0
3.086125424E0,-4.560285568E0,-7.377792835E0,8.278648853E-1,8.712829153E0
3.091098028E0,-4.490000725E0,-7.746720791E0,8.077398539E-1,8.990229874E0
3.096070633E0,-4.453043461E0,-8.099219322E0,8.062982559E-1,9.277772716E0
3.101043237E0,-4.447041988E0,-8.420598030E0,8.209537268E-1,9.558065633E0
3.106015841E0,-4.438565731E0,-8.717721939E0,8.441067934E-1,9.818964194E0
3.110988445E0,-4.403790951E0,-9.011766434E0,8.731340766E-1,1.006815137E1
3.115961049E0,-4.364348412E0,-9.273706436E0,8.767378330E-1,1.028677974E1
3.120933653E0,-4.329870701E0,-9.500761986E0,8.811308146E-1,1.047800793E1
3.125906258E0,-4.293245792E0,-9.714094162E0,8.980258107E-1,1.065842555E1
3.130735112E0,-4.276377678E0,-9.886882782E0,9.164663553E-1,1.081100216E1
3.135707716E0,-4.403290272E0,-1.013119984E1,9.193487763E-1,1.108491667E1
3.140680320E0,-4.542295933E0,-1.013074017E1,9.423622489E-1,1.114236937E1
3.145652924E0,-4.702899456E0,-1.005300426E1,1.014276147E0,1.114490530E1
3.150625528E0,-4.834808350E0,-9.917098045E0,1.125519156E0,1.109013069E1
3.155598133E0,-4.899731636E0,-9.735227585E0,1.259392977E0,1.097123953E1
3.160570737E0,-4.883321762E0,-9.560302734E0,1.377618194E0,1.082331057E1
3.165543341E0,-4.785584927E0,-9.404648781E0,1.446717858E0,1.065092645E1
3.170515945E0,-4.606500149E0,-9.278144836E0,1.445513725E0,1.045912641E1
3.175488549E0,-4.384284496E0,-9.185975075E0,1.355423450E0,1.026845954E1
3.180461153E0,-4.142743587E0,-9.121161461E0,1.189112186E0,1.008820592E1
3.185433758E0,-3.869792461E0,-9.072017670E0,9.689319730E-1,9.910379784E0
3.190406362E0,-3.550981045E0,-9.014898300E0,7.457621694E-1,9.717716756E0
3.195378966E0,-3.198185444E0,-8.940600395E0,4.892803729E-1,9.508002989E0
3.200351570E0,-2.875861168E0,-8.839876175E0,2.096981108E-1,9.298277343E0
3.205324174E0,-2.579052925E0,-8.727368355E0,-2.548608556E-2,9.100501191E0
3.210296778E0,-2.288471222E0,-8.629560471E0,-2.685019672E-1,8.931881535E0
3.215269383E0,-1.992048740E0,-8.553892136E0,-5.805075169E-1,8.801949661E0
3.220241987E0,-1.761381149E0,-8.438177109E0,-8.889998794E-1,8.665772744E0
3.225214591E0,-1.667921066E0,-8.251165390E0,-1.083449721E0,8.487493993E0
3.230187195E0,-1.496212006E0,-8.062503815E0,-1.163467407E0,8.282286794E0
3.235159799E0,-1.188901901E0,-7.877254486E0,-1.171712518E0,8.052175867E0
3.240132403E0,-8.632211685E-1,-7.681291580E0,-1.098330259E0,7.807286371E0
3.245105008E0,-4.020576477E-1,-7.485031128E0,-9.150637984E-1,7.551468936E0
3.249934643E0,2.106399536E-1,-7.286857128E0,-6.938403845E-1,7.322845791E0
3.254907247E0,1.455980301E0,-7.108906269E0,-3.868229985E-1,7.266777760E0
3.259879851E0,2.041438103E0,-7.017642021E0,-2.992660701E-1,7.314665354E0
3.264852456E0,2.572717667E0,-6.951164722E0,-2.289482653E-1,7.415523211E0
3.269825060E0,3.014013290E0,-6.902360439E0,-1.867081821E-1,7.534037144E0
3.274797664E0,3.367821693E0,-6.861673355E0,-2.091710865E-1,7.646472176E0
3.279770268E0,3.643843651E0,-6.793123245E0,-3.036233783E-1,7.714681272E0
3.284742872E0,3.796787262E0,-6.660823345E0,-4.343469143E-1,7.679245952E0
3.289715476E0,3.860391617E0,-6.462144375E0,-6.275430918E-1,7.553525249E0
3.294688081E0,3.865896225E0,-6.211453438E0,-8.829427958E-1,7.369321231E0
3.299660685E0,3.842096329E0,-5.935081482E0,-1.152508140E0,7.163460854E0
3.304633289E0,3.789126396E0,-5.654361725E0,-1.428790569E0,6.954906747E0
3.309605893E0,3.685632706E0,-5.383368015E0,-1.723271608E0,6.747903724E0
3.314578497E0,3.553355217E0,-5.121787071E0,-2.040294409E0,6.559103397E0
3.319551101E0,3.423513412E0,-4.850353241E0,-2.319649696E0,6.373942686E0
3.324523706E0,3.305764198E0,-4.554616928E0,-2.555956602E0,6.181061919E0
3.329496310E0,3.200187683E0,-4.222573757E0,-2.722549677E0,5.956811822E0
3.334468914E0,3.092528343E0,-3.873291969E0,-2.830904722E0,5.707901872E0
3.339441518E0,2.992406845E0,-3.523571968E0,-2.852127075E0,5.431821701E0
3.344414122E0,2.933258057E0,-3.166428566E0,-2.788262606E0,5.138548535E0
3.349386726E0,2.931581497E0,-2.795189381E0,-2.689584017E0,4.862213069E0
3.354359331E0,2.979884148E0,-2.369799137E0,-2.472939014E0,4.539943265E0
3.359331935E0,3.001444817E0,-1.912183285E0,-2.248547792E0,4.209641680E0
3.364304539E0,3.019897461E0,-1.456419468E0,-2.066524506E0,3.938459327E0
3.369133393E0,3.098950386E0,-1.017662048E0,-1.854718566E0,3.752214080E0
3.374105997E0,3.046882629E0,-3.272852898E-1,-1.452846169E0,3.391367189E0
3.379078601E0,2.976343155E0,7.973670959E-3,-1.176971436E0,3.200616177E0
3.384051206E0,2.913505554E0,3.112864494E-1,-8.764630556E-1,3.058365798E0
3.389023810E0,2.772388458E0,6.021571159E-1,-6.608921885E-1,2.912989777E0
3.393996414E0,2.593814850E0,8.784732819E-1,-4.627510309E-1,2.777360131E0
3.398969018E0,2.449460030E0,1.137838364E0,-2.389212698E-1,2.711385984E0
3.403941622E0,2.317799568E0,1.418700218E0,-5.868643522E-2,2.718151807E0
3.408914226E0,2.212931633E0,1.754271507E0,9.235623479E-2,2.825431756E0
3.413886831E0,2.194072723E0,2.131938934E0,2.789275050E-1,3.071956915E0
3.418859435E0,2.289157391E0,2.527063131E0,4.413783550E-1,3.438183311E0
3.423832039E0,2.480446815E0,2.929174900E0,5.346379280E-1,3.875373493E0
3.428804643E0,2.642767429E0,3.294579029E0,5.117177367E-1,4.254447756E0
3.433777247E0,2.713442802E0,3.625292540E0,4.664117694E-1,4.552258536E0
3.438749851E0,2.675582886E0,3.871103048E0,3.713861108E-1,4.720393017E0
3.443722456E0,2.505450249E0,4.010870934E0,1.466569752E-1,4.731371351E0
3.448695060E0,2.198813915E0,4.081188202E0,1.221736148E-2,4.635841783E0
3.453667664E0,1.813750744E0,4.073269844E0,5.562349409E-2,4.459182992E0
3.458640268E0,1.377541065E0,4.000235558E0,2.180823982E-1,4.236397507E0
3.463612872E0,9.770369530E-1,3.877352476E0,4.604065716E-1,4.024976726E0
3.468585476E0,6.987543106E-1,3.762630224E0,6.861697435E-1,3.887990832E0
3.473558081E0,5.356740952E-1,3.689874887E0,8.972586393E-1,3.834996283E0
3.478530685E0,4.495139122E-1,3.666342974E0,1.135809660E0,3.864478897E0
3.483503289E0,3.996291161E-1,3.699287891E0,1.441287994E0,3.990206187E0
3.488331414E0,4.035148621E-1,3.775282145E0,1.839790821E0,4.219053185E0
3.493304018E0,3.926730156E-1,3.885624409E0,2.348120689E0,4.556966087E0
3.498276622E0,4.611268044E-1,3.928238392E0,2.467219114E0,4.661637583E0
3.503249226E0,6.180367470E-1,3.996237040E0,2.610683918E0,4.813268164E0
3.508221831E0,8.009948730E-1,4.103849411E0,2.726029873E0,4.991433826E0
3.513194435E0,9.620370865E-1,4.224661827E0,2.748770475E0,5.131181349E0
3.518167039E0,1.108351707E0,4.375437737E0,2.774587154E0,5.298229211E0
3.523139643E0,1.254172802E0,4.532192230E0,2.803111553E0,5.474591328E0
3.528112247E0,1.408895016E0,4.687613487E0,2.774890900E0,5.626608648E0
3.533084851E0,1.605698109E0,4.815120220E0,2.638237953E0,5.720485001E0
3.538057456E0,1.856116772E0,4.904831409E0,2.475300312E0,5.799107885E0
3.543030060E0,2.104804039E0,4.982832909E0,2.360740423E0,5.901857266E0
3.548002664E0,2.313290119E0,5.056126595E0,2.328307629E0,6.027996660E0
3.552975268E0,2.486218929E0,5.119784355E0,2.385239124E0,6.171129725E0
3.557947872E0,2.659381390E0,5.166618347E0,2.535991192E0,6.340150302E0
3.562920476E0,2.830267429E0,5.208598137E0,2.753771305E0,6.536295945E0
3.567893081E0,2.979600906E0,5.252856255E0,2.976088047E0,6.732579035E0
3.572865685E0,3.124147892E0,5.263618946E0,3.176419973E0,6.896058897E0
3.577838289E0,3.278196812E0,5.228981972E0,3.342809677E0,7.018775059E0
3.582810893E0,3.475218773E0,5.163414001E0,3.472919941E0,7.127353126E0
3.587783497E0,3.705646992E0,5.045511246E0,3.554994583E0,7.199096460E0
3.592756101E0,3.957458019E0,4.863376617E0,3.620390892E0,7.240244216E0
3.597728706E0,4.266471863E0,4.641062737E0,3.723890781E0,7.321858236E0
3.602701310E0,4.630284309E0,4.373926163E0,3.855897903E0,7.445717662E0
3.607530216E0,4.972971439E0,4.058622837E0,4.006901264E0,7.566909674E0
3.612502820E0,5.460578442E0,3.315153599E0,4.270344734E0,7.684009660E0
3.617475424E0,5.628989220E0,2.954818726E0,4.448336124E0,7.759134463E0
3.622448028E0,5.746926308E0,2.635697842E0,4.612494946E0,7.826185196E0
3.627420633E0,5.812586308E0,2.382140636E0,4.724355698E0,7.860043915E0
3.632393237E0,5.836102486E0,2.187333107E0,4.793460369E0,7.862682790E0
3.637365841E0,5.834667206E0,2.056325912E0,4.850931644E0,7.861511018E0
3.642338445E0,5.839466095E0,2.027388573E0,4.949188232E0,7.918594121E0
3.647311049E0,5.902830124E0,2.114592552E0,5.090232372E0,8.076222554E0
3.652283653E0,6.017105103E0,2.291212559E0,5.300063610E0,8.339417430E0
3.657256258E0,6.138760090E0,2.564068317E0,5.551813126E0,8.664955324E0
3.662228862E0,6.260007858E0,2.935066223E0,5.820958138E0,9.038023332E0
3.667201466E0,6.389705181E0,3.367828369E0,6.116272449E0,9.464638868E0
3.672174070E0,6.496157646E0,3.816573143E0,6.412936211E0,9.894040912E0
3.677146674E0,6.586017132E0,4.223711014E0,6.688344002E0,1.029316773E1
3.682119278E0,6.658864021E0,4.560466766E0,6.943940163E0,1.064690716E1
3.687091883E0,6.709744453E0,4.814959526E0,7.119258881E0,1.090359358E1
3.692064487E0,6.750648022E0,4.977711678E0,7.111483574E0,1.099645674E1
3.697037091E0,6.798441887E0,5.029663086E0,6.866223812E0,1.089317916E1
3.702009695E0,6.908158302E0,4.956427574E0,6.456168652E0,1.067571726E1
3.706982299E0,7.056046009E0,4.784410954E0,5.973133087E0,1.040945207E1
3.711954903E0,7.099199295E0,4.573719978E0,5.427613735E0,1.003875171E1
3.716927508E0,6.940596581E0,4.370278358E0,4.870623589E0,9.539087376E0
3.721900112E0,6.672042847E0,4.215064526E0,4.326589584E0,9.000127895E0
3.726729799E0,6.399593830E0,4.127464294E0,3.770092010E0,8.497314662E0
3.731702403E0,6.278441429E0,4.159441948E0,2.390213013E0,7.901449382E0
3.736675008E0,6.563500881E0,4.192515373E0,1.521734238E0,7.935515362E0
3.741647612E0,7.054828167E0,4.194600105E0,6.835097075E-1,8.236046141E0
3.746620216E0,7.645920753E0,4.162419319E0,-3.412061930E-2,8.705573099E0
3.751592820E0,8.268735886E0,4.109627724E0,-5.132891536E-1,9.247945660E0
3.756565424E0,8.852964401E0,4.054757118E0,-6.612098813E-1,9.759776252E0
3.761538028E0,9.357255936E0,3.971030235E0,-4.958022237E-1,1.017708896E1
3.766510633E0,9.785931587E0,3.838984013E0,-1.570166945E-1,1.051317790E1
3.771483237E0,1.013160992E1,3.634539127E0,2.059463263E-1,1.076577020E1
3.776455841E0,1.038949013E1,3.331340790E0,5.757092237E-1,1.092569346E1
3.781428445E0,1.057163525E1,2.955743790E0,9.706252813E-1,1.101989140E1
3.786401049E0,1.066400814E1,2.546191216E0,1.389678717E0,1.105148706E1
3.791373653E0,1.065019989E1,2.117148399E0,1.843706131E0,1.101400596E1
3.796346258E0,1.053090096E1,1.666625023E0,2.298072577E0,1.090681674E1
3.801318862E0,1.031167412E1,1.202282429E0,2.742011070E0,1.073753840E1
3.806291466E0,9.981260300E0,7.484545708E-1,3.198302746E0,1.050784858E1
3.811264070E0,9.573961258E0,3.319554329E-1,3.634867191E0,1.024613040E1
3.816236674E0,9.109557152E0,-2.056407928E-2,4.000840664E0,9.949431160E0
3.821209278E0,8.607863426E0,-3.159141541E-1,4.276834011E0,9.616986205E0
3.826181883E0,8.102779388E0,-5.659065247E-1,4.427058220E0,9.250628546E0
3.831154487E0,7.670983791E0,-7.657780647E-1,4.549322605E0,8.951354341E0
3.836127091E0,7.331520557E0,-9.372572899E-1,4.665068150E0,8.740280645E0
3.841099695E0,7.026959419E0,-1.109207153E0,4.700460434E0,8.526595304E0
3.845928601E0,6.740665436E0,-1.271903515E0,4.669994354E0,8.298382754E0
3.850901206E0,6.252677917E0,-1.519366264E0,4.524171352E0,7.865912624E0
3.855873810E0,5.921992302E0,-1.698506355E0,4.412672043E0,7.578033467E0
3.860846414E0,5.523835182E0,-1.881163597E0,4.297416210E0,7.247021297E0
3.865819018E0,5.070599556E0,-2.071954727E0,4.100091457E0,6.842128777E0
3.870791622E0,4.596077442E0,-2.266000748E0,3.835636854E0,6.400843485E0
3.875764226E0,4.141051292E0,-2.449009895E0,3.590525627E0,6.003151635E0
3.880736831E0,3.703321457E0,-2.620897770E0,3.343390942E0,5.635774829E0
3.885709435E0,3.230457306E0,-2.800714016E0,3.091706991E0,5.276220761E0
3.890682039E0,2.737156868E0,-3.012101173E0,2.840528965E0,4.963203200E0
3.895654643E0,2.192806244E0,-3.233015537E0,2.561875343E0,4.671615776E0
3.900627247E0,1.574041367E0,-3.405436039E0,2.273330450E0,4.386642472E0
3.905599851E0,1.000815392E0,-3.536135197E0,1.975405931E0,4.172302982E0
3.910572456E0,4.518432617E-1,-3.648567200E0,1.692321301E0,4.047240582E0
3.915545060E0,-1.204519272E-1,-3.727870941E0,1.455724359E0,4.003831144E0
3.920517664E0,-6.632833481E-1,-3.754555702E0,1.225576878E0,4.004831083E0
3.925490268E0,-1.104957581E0,-3.735683918E0,1.037938714E0,4.031573187E0
3.930462872E0,-1.474282742E0,-3.695013046E0,9.191201329E-1,4.083064148E0
3.935435476E0,-1.835907936E0,-3.627613544E0,8.352000713E-1,4.150626114E0
3.940408081E0,-2.163527489E0,-3.554839134E0,7.547494769E-1,4.229347377E0
3.945380685E0,-2.457121849E0,-3.509866238E0,6.845999956E-1,4.338811582E0
3.950353289E0,-2.750160217E0,-3.470836639E0,5.956661701E-1,4.468210647E0
3.955325893E0,-3.033051491E0,-3.437471867E0,4.781092107E-1,4.609143369E0
3.960298497E0,-3.284264565E0,-3.387944698E0,3.201813102E-1,4.729384641E0
3.965126674E0,-3.492038727E0,-3.304943562E0,1.087008491E-1,4.809241342E0
3.970099278E0,-3.655882359E0,-3.030327559E0,-1.619249135E-1,4.751271473E0
3.975071883E0,-3.664557934E0,-2.948707342E0,-2.003639042E-1,4.707866346E0
3.980044487E0,-3.642786026E0,-2.854563951E0,-1.128973663E-1,4.629381298E0
3.985017091E0,-3.619433880E0,-2.762519598E0,4.707601666E-2,4.553463769E0
3.989989695E0,-3.613754272E0,-2.718241930E0,1.718895882E-1,4.525218797E0
3.994962299E0,-3.666335583E0,-2.740636826E0,1.881617755E-1,4.581322044E0
3.999934903E0,-3.779531956E0,-2.774657249E0,1.940964013E-1,4.692681330E0
4.004907508E0,-3.872002125E0,-2.820323706E0,2.637847960E-1,4.797521097E0
4.009880112E0,-3.960538387E0,-2.887223244E0,3.444632888E-1,4.913306151E0
4.014852716E0,-4.061913967E0,-2.946698666E0,4.027328491E-1,5.034319403E0
4.019825320E0,-4.118724346E0,-3.005885363E0,4.505878091E-1,5.118814944E0
4.024797924E0,-4.174039841E0,-3.074240923E0,5.286998749E-1,5.210862635E0
4.029770528E0,-4.261342525E0,-3.163662672E0,6.178319454E-1,5.343174893E0
4.034743133E0,-4.378178596E0,-3.264425993E0,6.700432301E-1,5.502170737E0
4.039715737E0,-4.500581741E0,-3.376384258E0,6.927116513E-1,5.668779066E0
4.044688341E0,-4.607014179E0,-3.494635105E0,7.243337035E-1,5.827667928E0
4.049660945E0,-4.704636097E0,-3.626153469E0,7.413374186E-1,5.985997908E0
4.054633549E0,-4.779116154E0,-3.797152042E0,7.724192739E-1,6.152637351E0
4.059606153E0,-4.835235596E0,-4.014545441E0,8.033877611E-1,6.335732811E0
4.064578758E0,-4.882603168E0,-4.228082180E0,8.511326313E-1,6.514669552E0
4.069551362E0,-4.911663055E0,-4.418512821E0,9.657382369E-1,6.676851044E0
4.074523966E0,-4.915287495E0,-4.612099171E0,1.151493907E0,6.837941805E0
4.079496570E0,-4.867233753E0,-4.820663452E0,1.402964950E0,6.992644076E0
4.084325476E0,-4.795658112E0,-5.044634819E0,1.668233156E0,7.157491114E0
4.089298081E0,-4.613266468E0,-5.446324348E0,2.087906361E0,7.436667895E0
4.094270685E0,-4.518280506E0,-5.738170624E0,2.256328106E0,7.644113903E0
4.099243289E0,-4.400687695E0,-6.049384117E0,2.445736170E0,7.870370118E0
4.104215893E0,-4.222337246E0,-6.370271683E0,2.691382408E0,8.102594177E0
4.109188497E0,-4.036014080E0,-6.734190941E0,2.937496185E0,8.382578429E0
4.114161101E0,-3.856177807E0,-7.143346786E0,3.173918009E0,8.716149730E0
4.119133706E0,-3.673349380E0,-7.583014488E0,3.369006634E0,9.074459218E0
4.124106310E0,-3.485227585E0,-8.026536942E0,3.500952721E0,9.424901938E0
4.129078914E0,-3.308687687E0,-8.459494591E0,3.605224609E0,9.772824946E0
4.134051518E0,-3.184493065E0,-8.838685036E0,3.707576752E0,1.009997399E1
4.139024122E0,-3.155723572E0,-9.168573380E0,3.766879559E0,1.040243773E1
4.143996726E0,-3.215190887E0,-9.472765923E0,3.746902466E0,1.068222939E1
4.148969331E0,-3.338950157E0,-9.734044075E0,3.690520048E0,1.093252672E1
4.153941935E0,-3.531794548E0,-9.916051865E0,3.659476757E0,1.114421049E1
4.158914539E0,-3.798488617E0,-1.001364517E1,3.610457897E0,1.130207997E1
4.163887143E0,-4.095952988E0,-1.003607559E1,3.500298023E0,1.139086171E1
4.168859747E0,-4.350043774E0,-1.001195145E1,3.319696188E0,1.140975177E1
4.173832351E0,-4.565620899E0,-9.972150803E0,3.063846350E0,1.138753003E1
4.178804956E0,-4.757083416E0,-9.919068336E0,2.766363621E0,1.134330318E1
4.183777560E0,-4.855092049E0,-9.847961426E0,2.451399326E0,1.125004985E1
4.188750164E0,-4.886001110E0,-9.751713753E0,2.152903557E0,1.111773006E1
4.193722768E0,-4.914395809E0,-9.625652313E0,1.897333145E0,1.097289122E1
4.198695372E0,-4.944990158E0,-9.501008034E0,1.656126380E0,1.083811957E1
4.203525112E0,-4.915354252E0,-9.413041115E0,1.360106945E0,1.070588349E1
4.208497716E0,-4.581704617E0,-9.505972862E0,6.172078848E-1,1.057054790E1
4.213470320E0,-4.324391842E0,-9.638877869E0,1.238080561E-1,1.056520988E1
4.218442924E0,-4.061894894E0,-9.828400612E0,-3.706632257E-1,1.064113903E1
4.223415528E0,-3.868198395E0,-1.005737495E1,-8.603793383E-1,1.080990298E1
4.228388133E0,-3.716768742E0,-1.028228951E1,-1.303705692E0,1.101088079E1
4.233360737E0,-3.612192631E0,-1.046918964E1,-1.647089839E0,1.119664112E1
4.238333341E0,-3.614037514E0,-1.059606075E1,-1.896827698E0,1.135498683E1
4.243305945E0,-3.710053921E0,-1.061938000E1,-2.006687164E0,1.142639598E1
4.248278549E0,-3.890368462E0,-1.050992298E1,-2.002071381E0,1.138427589E1
4.253251153E0,-4.090130806E0,-1.027701950E1,-1.898661494E0,1.122279891E1
4.258223758E0,-4.158542156E0,-9.925830841E0,-1.650382042E0,1.088757786E1
4.263196362E0,-3.968966961E0,-9.478803635E0,-1.275830507E0,1.035510312E1
4.268168966E0,-3.490639210E0,-9.001823425E0,-9.040353894E-1,9.697147367E0
4.273141570E0,-2.781394005E0,-8.541975021E0,-4.925878346E-1,8.996895723E0
4.278114174E0,-1.918183804E0,-8.143995285E0,-1.142303720E-1,8.367624327E0
4.283086778E0,-1.011345863E0,-7.823574543E0,9.359289706E-2,7.889226750E0
4.288059383E0,-1.185321808E-1,-7.555722237E0,1.610013247E-1,7.558366875E0
4.293031987E0,7.050161362E-1,-7.272415161E0,1.988628805E-1,7.309214491E0
4.298004591E0,1.425652504E0,-6.984316826E0,2.413651049E-1,7.132420606E0
4.302977195E0,1.966848373E0,-6.744373322E0,1.820557117E-1,7.027674459E0
4.307949799E0,2.245093346E0,-6.576331139E0,-2.005945891E-2,6.949027109E0
4.312922403E0,2.322958946E0,-6.489097595E0,-3.434726000E-1,6.900905686E0
4.317895008E0,2.286887169E0,-6.431797028E0,-6.757215858E-1,6.859625762E0
4.322723966E0,2.179747581E0,-6.386316299E0,-1.048998117E0,6.829109199E0
4.327696570E0,1.726081848E0,-6.427571297E0,-1.754223943E0,6.882610912E0
4.332669174E0,1.504446030E0,-6.363990784E0,-2.010701895E0,6.841539203E0
4.337641778E0,1.292455673E0,-6.252504349E0,-2.248978615E0,6.769206535E0
4.342614383E0,1.140518188E0,-6.088096619E0,-2.432791233E0,6.654635629E0
4.347586987E0,1.079767227E0,-5.892381668E0,-2.569270849E0,6.518221512E0
4.352559591E0,1.119687080E0,-5.656088829E0,-2.660410881E0,6.350025674E0
4.357532195E0,1.202707291E0,-5.362985611E0,-2.691347599E0,6.119760730E0
4.362504799E0,1.311907768E0,-5.020892143E0,-2.635462284E0,5.820319695E0
4.367477403E0,1.442382812E0,-4.668534279E0,-2.499642611E0,5.488523815E0
4.372450008E0,1.562845230E0,-4.304106712E0,-2.291119576E0,5.120258657E0
4.377422612E0,1.625451088E0,-3.923053265E0,-2.010409594E0,4.698317240E0
4.382395216E0,1.637355804E0,-3.520913124E0,-1.684200287E0,4.232528070E0
4.387367820E0,1.629672050E0,-3.097859383E0,-1.362903357E0,3.756337219E0
4.392340424E0,1.554598808E0,-2.668328285E0,-1.125450373E0,3.286851356E0
4.397313028E0,1.460048676E0,-2.253889084E0,-9.479676485E-1,2.847876542E0
4.402285633E0,1.420011520E0,-1.852489471E0,-8.090443015E-1,2.470364880E0
4.407258237E0,1.434164047E0,-1.411985397E0,-7.131947279E-1,2.135222704E0
4.412230841E0,1.432927132E0,-9.446010590E-1,-6.694130301E-1,1.842190308E0
4.417203445E0,1.377885818E0,-5.031929016E-1,-7.035208941E-1,1.626872482E0
4.422176049E0,1.311899185E0,-1.119341850E-1,-7.718705535E-1,1.526234872E0
4.427148653E0,1.273039818E0,2.409787178E-1,-8.097070456E-1,1.527850326E0
4.432121258E0,1.184716225E0,5.580658913E-1,-8.525187969E-1,1.562619074E0
4.437093862E0,1.089892387E0,8.607783318E-1,-8.550295830E-1,1.630913959E0
4.441922039E0,1.071271896E0,1.149011612E0,-7.664051056E-1,1.747921035E0
4.446894643E0,9.805049896E-1,1.609550476E0,-6.850114465E-1,2.005313804E0
4.451867247E0,9.183092117E-1,1.877957344E0,-6.605468392E-1,2.192336133E0
4.456839851E0,8.701381683E-1,2.121792078E0,-6.208794117E-1,2.375843702E0
4.461812456E0,8.118877411E-1,2.333837509E0,-6.038744450E-1,2.543742040E0
4.466785060E0,7.625479698E-1,2.516442537E0,-5.452088118E-1,2.685370570E0
4.471757664E0,7.553696632E-1,2.674282551E0,-4.185532928E-1,2.810259303E0
4.476730268E0,7.279982567E-1,2.781108379E0,-4.094462097E-1,2.903823596E0
4.481702872E0,6.279168129E-1,2.844355106E0,-4.815981984E-1,2.952384175E0
4.486675476E0,5.030908585E-1,2.871386051E0,-4.485367537E-1,2.949431044E0
4.491648081E0,3.967080116E-1,2.876765728E0,-2.917355895E-1,2.918607194E0
4.496620685E0,2.969980240E-1,2.903827667E0,-4.529191554E-2,2.919327715E0
4.501593289E0,2.138552666E-1,2.902736187E0,2.209859043E-1,2.918980338E0
4.506565893E0,1.784462929E-1,2.864065647E0,5.087825060E-1,2.914373818E0
4.511538497E0,1.789393425E-1,2.816756487E0,8.222731352E-1,2.939773716E0
4.516511101E0,1.653642654E-1,2.753959417E0,1.065592527E0,2.957553930E0
4.521483706E0,1.403880119E-1,2.685522556E0,1.284006953E0,2.980002357E0
4.526456310E0,1.352939606E-1,2.628363609E0,1.544101357E0,3.051368336E0
4.531428914E0,1.431136131E-1,2.570731163E0,1.811949611E0,3.148380792E0
4.536401518E0,1.688275337E-1,2.510429859E0,2.084733725E0,3.267548854E0
4.541374122E0,2.078881264E-1,2.462050438E0,2.376271009E0,3.428056846E0
4.546346726E0,2.629308701E-1,2.406689644E0,2.664454937E0,3.600084415E0
4.551319331E0,3.983678818E-1,2.353819847E0,3.055415630E0,3.877464315E0
4.556291935E0,5.307888985E-1,2.313355923E0,3.343529463E0,4.100309958E0
4.561120945E0,6.241102219E-1,2.239792347E0,3.437020540E0,4.149613659E0
4.566093549E0,1.013414860E0,1.963223457E0,3.682419538E0,4.294353232E0
4.571066153E0,1.323192596E0,1.886018276E0,3.841274977E0,4.479207188E0
4.576038758E0,1.568028450E0,1.843024731E0,3.982933044E0,4.660387217E0
4.581011362E0,1.762578011E0,1.810436249E0,4.121615410E0,4.834467317E0
4.585983966E0,2.004953384E0,1.843207836E0,4.273621082E0,5.067651365E0
4.590956570E0,2.333030224E0,1.948141098E0,4.450295925E0,5.389194521E0
4.595929174E0,2.777335644E0,2.112825871E0,4.643843651E0,5.808864802E0
4.600901778E0,3.284506798E0,2.315196514E0,4.774932384E0,6.240841216E0
4.605874383E0,3.712956905E0,2.547719479E0,4.819531441E0,6.595817374E0
4.610846987E0,4.086360455E0,2.786205292E0,4.799393177E0,6.891694752E0
4.615819591E0,4.535610199E0,3.008650303E0,4.707396984E0,7.196063013E0
4.620792195E0,5.076531410E0,3.202589512E0,4.565175056E0,7.541125515E0
4.625764799E0,5.629351616E0,3.353239059E0,4.318193913E0,7.847331424E0
4.630737403E0,6.200364590E0,3.460140228E0,3.993367195E0,8.146414733E0
4.635710008E0,6.824754238E0,3.518206120E0,3.589190006E0,8.475690509E0
4.640682612E0,7.427803993E0,3.486593246E0,3.099613667E0,8.771328834E0
4.645655216E0,7.947128773E0,3.360593319E0,2.594848871E0,9.010198880E0
4.650627820E0,8.365865707E0,3.180963039E0,2.120785952E0,9.198041528E0
4.655600424E0,8.662849426E0,2.969563961E0,1.723284960E0,9.318421613E0
4.660573028E0,8.822010040E0,2.748370647E0,1.335911870E0,9.336276715E0
4.665545633E0,8.841858864E0,2.534662724E0,9.161062241E-1,9.243496844E0
4.670518237E0,8.780609131E0,2.348007202E0,5.482800007E-1,9.105649098E0
4.675490841E0,8.670250893E0,2.227135658E0,2.354417145E-1,8.954820857E0
4.680320581E0,8.516269684E0,2.173222542E0,-5.391424894E-2,8.789348798E0
4.685293185E0,8.203512192E0,2.279742718E0,-5.188362002E-1,8.530183476E0
4.690265789E0,8.201271057E0,2.473631859E0,-5.323610902E-1,8.582721588E0
4.695238393E0,8.252696037E0,2.749697685E0,-4.110098481E-1,8.708430303E0
4.700210997E0,8.321152687E0,3.095546722E0,-1.410263777E-1,8.879407637E0
4.705183601E0,8.417951584E0,3.484523773E0,2.432085127E-1,9.113888587E0
4.710156206E0,8.477777481E0,3.866061211E0,6.690171957E-1,9.341666035E0
4.715128810E0,8.478636742E0,4.213689804E0,1.178371668E0,9.541017899E0
4.720101414E0,8.475210190E0,4.515408039E0,1.717341185E0,9.755375865E0
4.725074018E0,8.500539780E0,4.752031803E0,2.229598522E0,9.990600201E0
4.730046622E0,8.547428131E0,4.897456169E0,2.704408646E0,1.021554848E1
4.735019226E0,8.546694756E0,4.937647820E0,3.154785156E0,1.036238518E1
4.739991831E0,8.448647499E0,4.904135227E0,3.529351711E0,1.038684314E1
4.744964435E0,8.258960724E0,4.826131821E0,3.729393244E0,1.026695449E1
4.749937039E0,7.957257748E0,4.706598282E0,3.704717875E0,9.959666299E0
4.754909643E0,7.566181183E0,4.591472149E0,3.529673576E0,9.528237494E0
4.759882247E0,7.151328087E0,4.557667255E0,3.276359320E0,9.091114047E0
4.764854851E0,6.811398029E0,4.605309963E0,2.923835516E0,8.726559293E0
4.769827456E0,6.625368118E0,4.700799465E0,2.451621532E0,8.485485634E0
4.774800060E0,6.626157284E0,4.803136826E0,1.803990841E0,8.380361965E0
4.779772664E0,6.891470432E0,4.868703842E0,1.006972194E0,8.497684086E0
4.784745268E0,7.388534069E0,4.887262344E0,1.251407266E-1,8.859538877E0
4.789717872E0,7.950623512E0,4.862946033E0,-7.196313143E-1,9.347648238E0
4.794690476E0,8.507038116E0,4.819136620E0,-1.446666718E0,9.883654176E0
4.799519435E0,9.004936218E0,4.756998062E0,-2.009680986E0,1.038059365E1
4.804492039E0,9.815011978E0,4.552237988E0,-2.444518089E0,1.109202414E1
4.809464643E0,1.010712814E1,4.393902302E0,-2.427309513E0,1.128504534E1
4.814437247E0,1.034322739E1,4.198076248E0,-2.264693737E0,1.139012883E1
4.819409851E0,1.053994560E1,3.966987133E0,-2.004787922E0,1.143882052E1
4.824382456E0,1.067118263E1,3.700601578E0,-1.683387160E0,1.141938629E1
4.829355060E0,1.071584702E1,3.389380932E0,-1.344070792E0,1.131917871E1
4.834327664E0,1.072202682E1,3.071468353E0,-8.659222722E-1,1.118684935E1
4.839300268E0,1.065440559E1,2.782740116E0,-2.596573234E-1,1.101487281E1
4.844272872E0,1.045383644E1,2.520792961E0,3.540811539E-1,1.075929677E1
4.849245476E0,1.019275856E1,2.268876553E0,1.024220228E0,1.049233792E1
4.854218081E0,9.907677650E0,1.976826191E0,1.660983682E0,1.023859292E1
4.859190685E0,9.584796906E0,1.666259766E0,2.194116354E0,9.972908297E0
4.864163289E0,9.195941925E0,1.387462616E0,2.625474930E0,9.663514837E0
4.869135893E0,8.734681129E0,1.135805130E0,2.987991333E0,9.301225722E0
4.874108497E0,8.259080887E0,8.851346970E-1,3.305134773E0,8.939787268E0
4.879081101E0,7.819679260E0,6.402416229E-1,3.547687292E0,8.610654922E0
4.884053706E0,7.428622723E0,3.915176392E-1,3.712937355E0,8.314061909E0
4.889026310E0,7.045676708E0,7.934665680E-2,3.762860060E0,7.987926639E0
4.893998914E0,6.673670292E0,-2.864680290E-1,3.719307423E0,7.645468383E0
4.898971518E0,6.293906689E0,-6.554636955E-1,3.654394627E0,7.307358904E0
4.903944122E0,5.904347897E0,-9.892492294E-1,3.592068672E0,6.981611237E0
4.908916726E0,5.522035599E0,-1.290161610E0,3.560999155E0,6.696126426E0
4.913889331E0,5.116300106E0,-1.577127457E0,3.558819771E0,6.428767841E0
4.918717560E0,4.684964657E0,-1.843115330E0,3.554469585E0,6.162809586E0
4.923690164E0,3.959745884E0,-2.172059536E0,3.509954453E0,5.719896009E0
4.928662768E0,3.568598747E0,-2.369475842E0,3.447443008E0,5.498561274E0
4.933635372E0,3.217011929E0,-2.504935741E0,3.372184277E0,5.291076980E0
4.938607976E0,2.876348019E0,-2.604801655E0,3.322524071E0,5.108574731E0
4.943580581E0,2.539566994E0,-2.714482307E0,3.329262495E0,4.990170686E0
4.948553185E0,2.187656403E0,-2.843490124E0,3.320541143E0,4.888483416E0
4.953525789E0,1.789716721E0,-2.979717255E0,3.239601612E0,4.751507073E0
4.958498393E0,1.346041679E0,-3.089447975E0,3.096795321E0,4.576751932E0
4.963470997E0,9.070854187E-1,-3.167720318E0,2.947982311E0,4.421295701E0
4.968443601E0,4.539599419E-1,-3.230984211E0,2.815381527E0,4.309490891E0
4.973416206E0,-1.777553558E-2,-3.269246578E0,2.694375515E0,4.236501927E0
4.978388810E0,-4.600977898E-1,-3.296586514E0,2.599218607E0,4.223163504E0
4.983361414E0,-8.608961105E-1,-3.329416752E0,2.500964642E0,4.252173816E0
4.988334018E0,-1.241662502E0,-3.343590736E0,2.356734514E0,4.274987994E0
4.993306622E0,-1.580837250E0,-3.331722260E0,2.157396555E0,4.272444209E0
4.998279226E0,-1.902238846E0,-3.307806969E0,1.915321350E0,4.269491239E0
5.003251831E0,-2.224899292E0,-3.295408726E0,1.656957269E0,4.307598277E0
5.008224435E0,-2.510456085E0,-3.270258904E0,1.460783243E0,4.373885085E0
5.013197039E0,-2.727909565E0,-3.241785049E0,1.288480878E0,4.428413246E0
5.018169643E0,-2.884604454E0,-3.231440544E0,1.065975666E0,4.460880515E0
5.023142247E0,-3.009384632E0,-3.217593670E0,8.557521701E-1,4.487941250E0
5.028114851E0,-3.111979008E0,-3.200284004E0,7.078469396E-1,4.519654671E0
5.033087456E0,-3.197335720E0,-3.172455788E0,6.454411745E-1,4.550167661E0
5.037916414E0,-3.267850876E0,-3.145668507E0,6.411856413E-1,4.580960459E0
5.042889018E0,-3.285047054E0,-3.057261944E0,6.861715317E-1,4.539737450E0
5.047861622E0,-3.323725224E0,-3.109189987E0,6.275625825E-1,4.594349413E0
5.052834226E0,-3.367195606E0,-3.160210609E0,5.279068351E-1,4.647969769E0
5.057806831E0,-3.401211739E0,-3.222410202E0,5.565573573E-1,4.718254433E0
5.062779435E0,-3.444987774E0,-3.298220158E0,6.699054241E-1,4.816115680E0
5.067752039E0,-3.479467392E0,-3.361408710E0,7.864184976E-1,4.901450388E0
5.072724643E0,-3.485588074E0,-3.428759813E0,8.819674850E-1,4.968257715E0
5.077697247E0,-3.501679420E0,-3.540892839E0,9.662061334E-1,5.072793624E0
5.082669851E0,-3.534917355E0,-3.685712337E0,1.027189016E0,5.209149011E0
5.087642456E0,-3.559003353E0,-3.836821079E0,1.071948528E0,5.341982264E0
5.092615060E0,-3.595489025E0,-3.989345789E0,1.129194140E0,5.487941377E0
5.097587664E0,-3.649184704E0,-4.148043633E0,1.179769397E0,5.649307109E0
5.102560268E0,-3.679433346E0,-4.315187454E0,1.218745351E0,5.800380396E0
5.107532872E0,-3.671998501E0,-4.476516724E0,1.231534958E0,5.919413258E0
5.112505476E0,-3.672392845E0,-4.651120663E0,1.237207174E0,6.053930477E0
5.117478081E0,-3.694978714E0,-4.822142601E0,1.264243245E0,6.205178317E0
5.122450685E0,-3.732588768E0,-4.965602398E0,1.302946925E0,6.347211732E0
5.127423289E0,-3.770899296E0,-5.117331505E0,1.290983796E0,6.486401344E0
5.132395893E0,-3.778891087E0,-5.296474457E0,1.252086043E0,6.625736108E0
5.137368497E0,-3.775820255E0,-5.503116608E0,1.205053806E0,6.781833504E0
5.142341101E0,-3.723528862E0,-5.713435650E0,1.125591040E0,6.911943960E0
5.147313706E0,-3.634117603E0,-5.929978371E0,1.037518859E0,7.031920052E0
5.152286310E0,-3.577013493E0,-6.207624435E0,9.571112990E-1,7.228117922E0
5.157116049E0,-3.558809757E0,-6.577859879E0,8.542689681E-1,7.527492474E0
5.162088653E0,-3.537528038E0,-7.269606113E0,5.677166581E-1,8.104540694E0
5.167061258E0,-3.584349632E0,-7.606962681E0,5.064748526E-1,8.424367056E0
5.172033862E0,-3.658540249E0,-7.934272289E0,5.200107098E-1,8.752599880E0
5.177006466E0,-3.752923489E0,-8.263074875E0,6.057972312E-1,9.095594064E0
5.181979070E0,-3.845991135E0,-8.540299416E0,7.254100442E-1,9.394390967E0
5.186951674E0,-3.918668747E0,-8.787155151E0,8.548933864E-1,9.659239261E0
5.191924278E0,-4.023642063E0,-9.036785126E0,1.006379366E0,9.943137346E0
5.196896883E0,-4.175280571E0,-9.243351936E0,1.167839766E0,1.020962157E1
5.201869487E0,-4.340131760E0,-9.397034645E0,1.317600489E0,1.043441780E1
5.206842091E0,-4.520651340E0,-9.514266014E0,1.476881266E0,1.063666887E1
5.211814695E0,-4.709736347E0,-9.587766647E0,1.614478946E0,1.080339891E1
5.216787299E0,-4.902663708E0,-9.627008438E0,1.706768274E0,1.093747964E1
5.221759903E0,-5.111427784E0,-9.648385048E0,1.780345440E0,1.106289555E1
5.226732508E0,-5.343232155E0,-9.663498878E0,1.818564653E0,1.119109100E1
5.231705112E0,-5.567017078E0,-9.698378563E0,1.823761225E0,1.133032793E1
5.236677716E0,-5.735004425E0,-9.755090714E0,1.772266150E0,1.145395119E1
5.241650320E0,-5.844888687E0,-9.835726738E0,1.650312424E0,1.155974806E1
5.246622924E0,-5.882393837E0,-9.956740379E0,1.456439614E0,1.165591921E1
5.251595528E0,-5.821297646E0,-1.014658546E1,1.167832851E0,1.175604255E1
5.256568133E0,-5.623455524E0,-1.041464329E1,8.022629619E-1,1.186303809E1
5.261540737E0,-5.310546398E0,-1.072025967E1,4.442564249E-1,1.197176821E1
5.266513341E0,-4.949659824E0,-1.103018284E1,1.133777201E-1,1.209036477E1
5.271485945E0,-4.564738274E0,-1.130878067E1,-1.994562298E-1,1.219693152E1
5.276314956E0,-4.140989780E0,-1.151529503E1,-4.428471923E-1,1.224524110E1
5.281287560E0,-3.413411617E0,-1.181051254E1,-4.491717517E-1,1.230208684E1
5.286260164E0,-3.216888905E0,-1.184381866E1,-2.029421926E-1,1.227459166E1
5.291232768E0,-3.134636879E0,-1.175906754E1,1.440574378E-1,1.217055341E1
5.296205372E0,-3.164044380E0,-1.155164528E1,5.862351656E-1,1.199147018E1
5.301177976E0,-3.292896748E0,-1.128843498E1,1.091910958E0,1.180949630E1
5.306150581E0,-3.530478954E0,-1.100971985E1,1.679599404E0,1.168329007E1
5.311123185E0,-3.852566242E0,-1.071269608E1,2.346129656E0,1.162361597E1
5.316095789E0,-4.108236790E0,-1.037800789E1,2.983003855E0,1.155330988E1
5.321068393E0,-4.244809628E0,-9.958001137E0,3.560797930E0,1.139559026E1
5.326040997E0,-4.233630180E0,-9.498736382E0,4.038281441E0,1.115604474E1
5.331013601E0,-3.960088730E0,-9.065933228E0,4.288382530E0,1.078256337E1
5.335986206E0,-3.343273163E0,-8.706445694E0,4.204025745E0,1.023002955E1
5.340958810E0,-2.567856789E0,-8.433689117E0,3.781030178E0,9.592559086E0
5.345931414E0,-1.842202187E0,-8.255950928E0,3.096312046E0,9.007862283E0
5.350904018E0,-1.228506088E0,-8.197792053E0,2.233994961E0,8.585089123E0
5.355876622E0,-7.314233780E-1,-8.235433578E0,1.326032043E0,8.373512248E0
5.360849226E0,-3.889636993E-1,-8.313503265E0,4.426178038E-1,8.334358993E0
5.365821831E0,-2.246265411E-1,-8.404933929E0,-4.417614341E-1,8.419532327E0
5.370794435E0,-1.996955872E-1,-8.468374252E0,-1.307079554E0,8.570979977E0
5.375767039E0,-2.467565536E-1,-8.474357605E0,-2.135492086E0,8.742765699E0
5.380739643E0,-3.533973694E-1,-8.441098213E0,-2.918291092E0,8.938313691E0
5.385712247E0,-5.214996338E-1,-8.365169525E0,-3.570795774E0,9.110357047E0
5.390684851E0,-7.337522507E-1,-8.224013329E0,-4.110882759E0,9.223456221E0
5.395513028E0,-9.220066071E-1,-8.028887749E0,-4.554121971E0,9.276484334E0
5.400485633E0,-9.180431366E-1,-7.520620346E0,-4.843735695E0,8.992458455E0
5.405458237E0,-7.423133850E-1,-7.134248734E0,-4.801950455E0,8.631758936E0
5.410430841E0,-3.855123520E-1,-6.727128983E0,-4.603969574E0,8.160846767E0
5.415403445E0,1.089258194E-1,-6.286098480E0,-4.276740551E0,7.603775949E0
5.420376049E0,6.639127731E-1,-5.784069061E0,-3.852215767E0,6.981103164E0
5.425348653E0,1.276525497E0,-5.232103348E0,-3.350307226E0,6.342632048E0
5.430321258E0,1.845823288E0,-4.686424732E0,-2.829354525E0,5.777100259E0
5.435293862E0,2.299795151E0,-4.166903496E0,-2.269002438E0,5.272619324E0
5.440266466E0,2.640652657E0,-3.662165642E0,-1.694417477E0,4.822401292E0
5.445239070E0,2.877759933E0,-3.182283878E0,-1.197482347E0,4.454480541E0
5.450211674E0,3.075531006E0,-2.708420277E0,-7.598940134E-1,4.167957566E0
5.455184278E0,3.155004501E0,-2.266827106E0,-4.299687147E-1,3.908635520E0
5.460156883E0,3.085306168E0,-1.859549999E0,-2.054017037E-1,3.608217040E0
5.465129487E0,2.948046684E0,-1.502912998E0,-6.701061875E-2,3.309715570E0
5.470102091E0,2.743447304E0,-1.174996853E0,-1.073006243E-1,2.986408233E0
5.475074695E0,2.583898544E0,-9.021029472E-1,-1.775143743E-1,2.742595991E0
5.480047299E0,2.452698708E0,-6.839509010E-1,-2.577337325E-1,2.559286319E0
5.485019903E0,2.297315598E0,-4.724507332E-1,-3.593713641E-1,2.372765565E0
5.489992508E0,2.168182373E0,-2.960081100E-1,-4.029436707E-1,2.225084090E0
5.494965112E0,2.063266277E0,-1.612515450E-1,-4.191971421E-1,2.111586142E0
5.499937716E0,2.011452198E0,-6.552457809E-2,-3.694670498E-1,2.046152320E0
5.504910320E0,1.979375362E0,1.764822006E-2,-2.800082266E-1,1.999160547E0
5.509882924E0,1.976551056E0,1.957411766E-1,-1.557013243E-1,1.992313125E0
5.514711883E0,2.071311474E0,5.149140358E-1,-2.425779402E-2,2.134492007E0
5.519684487E0,2.392704010E0,1.214920521E0,1.488620043E-2,2.683521185E0
5.524657091E0,2.671139240E0,1.611788750E0,1.232299302E-2,3.119775580E0
5.529629695E0,2.956007481E0,1.987269402E0,2.811612189E-2,3.562023360E0
5.534602299E0,3.210770607E0,2.305051804E0,8.637100458E-2,3.953450601E0
5.539574903E0,3.463504314E0,2.560008526E0,2.415285856E-1,4.313680777E0
5.544547508E0,3.685336113E0,2.773819447E0,4.551263154E-1,4.634966726E0
5.549520112E0,3.747344971E0,2.944511414E0,5.724239349E-1,4.800042808E0
5.554492716E0,3.780971050E0,3.069689751E0,7.224053144E-1,4.923475062E0
5.559465320E0,3.865100861E0,3.149564266E0,1.035753369E0,5.092302502E0
5.564437924E0,3.901769161E0,3.217986107E0,1.396695733E0,5.246903481E0
5.569410528E0,3.884158611E0,3.265875340E0,1.827577353E0,5.393762029E0
5.574383133E0,3.798608780E0,3.255717278E0,2.310430527E0,5.510645413E0
5.579355737E0,3.669671535E0,3.200162411E0,2.750978470E0,5.592442326E0
5.584328341E0,3.564953327E0,3.138142586E0,3.165190458E0,5.707474201E0
5.589300945E0,3.506311417E0,3.101140022E0,3.504725695E0,5.847597061E0
5.594273549E0,3.513009548E0,3.110920429E0,3.840363979E0,6.063617526E0
5.599246153E0,3.575643063E0,3.143792629E0,4.161825180E0,6.323720759E0
5.604218758E0,3.646499634E0,3.178422928E0,4.377727985E0,6.524096428E0
5.609191362E0,3.696942329E0,3.236438274E0,4.537931442E0,6.688403178E0
5.614163966E0,3.800995350E0,3.339245796E0,4.609230518E0,6.844204417E0
5.619136570E0,3.994222164E0,3.479479313E0,4.589250565E0,7.008695152E0
5.624109174E0,4.199738026E0,3.644937515E0,4.445228577E0,7.119229317E0
5.629081778E0,4.431465149E0,3.835328102E0,4.206274509E0,7.213901182E0
5.633911518E0,4.722726345E0,4.052628994E0,3.965630531E0,7.379306973E0
5.638884122E0,5.328228474E0,4.443797588E0,3.278481960E0,7.673708337E0
5.643856726E0,5.711014748E0,4.669453621E0,2.927670717E0,7.936670737E0
5.648829331E0,6.062251091E0,4.894669056E0,2.647451401E0,8.229074819E0
5.653801935E0,6.367403984E0,5.085964680E0,2.454415560E0,8.510876921E0
5.658774539E0,6.667058468E0,5.214715958E0,2.267530441E0,8.762683689E0
5.663747143E0,6.953820229E0,5.297707558E0,2.044099569E0,8.977731572E0
5.668719747E0,7.189301014E0,5.375687122E0,1.889396667E0,9.173542439E0
5.673692351E0,7.330405712E0,5.484587669E0,1.803193212E0,9.330972916E0
5.678664956E0,7.443982124E0,5.629155159E0,1.730321169E0,9.491800094E0
5.683637560E0,7.596717834E0,5.790179253E0,1.680254459E0,9.698430424E0
5.688610164E0,7.795341969E0,5.907757759E0,1.595851660E0,9.910383477E0
5.693582768E0,7.986822605E0,5.945968628E0,1.360605478E0,1.004963310E1
5.698555372E0,8.211177826E0,5.914247990E0,1.066117048E0,1.017538088E1
5.703527976E0,8.510905266E0,5.817305565E0,7.800931931E-1,1.033852494E1
5.708500581E0,8.785345078E0,5.609793663E0,4.315621853E-1,1.043256052E1
5.713473185E0,8.974843979E0,5.280001163E0,8.343610168E-2,1.041312625E1
5.718445789E0,9.013192177E0,4.871473789E0,-1.705845892E-1,1.024685265E1
5.723418393E0,8.918165207E0,4.403882027E0,-3.448804617E-1,9.952225384E0
5.728390997E0,8.765031815E0,3.923221111E0,-4.205444157E-1,9.612195597E0
5.733363601E0,8.590600967E0,3.477785110E0,-3.696503341E-1,9.275238845E0
5.738336206E0,8.393610001E0,3.101552010E0,-2.265391052E-1,8.951180574E0
5.743308810E0,8.124897003E0,2.799718857E0,-4.937136173E-2,8.593882389E0
5.748281414E0,7.811743736E0,2.618036270E0,1.113135815E-1,8.239529406E0
5.753110372E0,7.541119099E0,2.578222275E0,2.199301422E-1,7.972708237E0
5.758082976E0,7.329678059E0,2.847474575E0,4.172009528E-1,7.874410996E0
5.763055581E0,7.374443054E0,3.140292168E0,6.067205667E-1,8.038156201E0
5.768028185E0,7.435374737E0,3.492275715E0,8.381711245E-1,8.257319055E0
5.773000789E0,7.447525024E0,3.862588406E0,1.125246048E0,8.464714812E0
5.777973393E0,7.405932903E0,4.212899685E0,1.443158388E0,8.641705391E0
5.782945997E0,7.341452599E0,4.538383484E0,1.771863222E0,8.810978957E0
5.787918601E0,7.287320137E0,4.841412067E0,2.110350609E0,8.999882515E0
5.792891206E0,7.262310028E0,5.117133141E0,2.405120850E0,9.203847284E0
5.797863810E0,7.302115917E0,5.324883938E0,2.543419123E0,9.388517809E0
5.802836414E0,7.494660854E0,5.371290207E0,2.503615141E0,9.554516659E0
5.807809018E0,7.884739399E0,5.237195015E0,2.326665878E0,9.747343285E0
5.812781622E0,8.354677200E0,4.925035954E0,1.994036436E0,9.901151023E0
5.817754226E0,8.732432365E0,4.470909119E0,1.525765419E0,9.928361571E0
5.822726831E0,8.918416977E0,3.968473911E0,9.992160201E-1,9.812511361E0
5.827699435E0,8.952099800E0,3.501823425E0,4.748528898E-1,9.624361974E0
5.832672039E0,8.937284470E0,3.126189709E0,-3.726792336E-2,9.468342235E0
5.837644643E0,8.920343399E0,2.846565247E0,-5.746668577E-1,9.381135435E0
5.842617247E0,8.915962219E0,2.698795319E0,-1.200502634E0,9.392501533E0
5.847589851E0,8.947893143E0,2.754366875E0,-1.905596852E0,9.554194259E0
5.852562456E0,9.093927383E0,3.065186024E0,-2.616191387E0,9.946825523E0
5.857535060E0,9.418978691E0,3.579947948E0,-3.265681505E0,1.059234925E1
5.862507664E0,9.939365387E0,4.218426228E0,-3.816437960E0,1.145213093E1
5.867480268E0,1.064490891E1,4.857360840E0,-4.223855019E0,1.243981476E1
5.872308445E0,1.147819424E1,5.320732594E0,-4.412209034E0,1.339875841E1
5.877281049E0,1.312293148E1,5.544652939E0,-3.980297565E0,1.479179758E1
5.882253653E0,1.374228573E1,5.227991104E0,-3.302839518E0,1.506954070E1
5.887226258E0,1.419159317E1,4.658051014E0,-2.398582935E0,1.512785365E1
5.892198862E0,1.437398720E1,3.949811459E0,-1.441271901E0,1.497630740E1
5.897171466E0,1.434338856E1,3.167884350E0,-5.183585286E-1,1.469819656E1
5.902144070E0,1.408786201E1,2.348721981E0,4.424890280E-1,1.428916189E1
5.907116674E0,1.323312187E1,1.598773003E0,1.165550947E0,1.338021295E1
5.912089278E0,1.253631592E1,6.860504150E-1,1.750480652E0,1.267651626E1
5.917061883E0,1.235902214E1,-4.394092560E-1,2.399352551E0,1.259743630E1
5.922034487E0,1.200838184E1,-1.444580078E0,2.928982973E0,1.244455654E1
5.927007091E0,1.125011730E1,-2.199374199E0,3.248567104E0,1.191451109E1
5.931979695E0,1.008239555E1,-2.685921669E0,3.356285810E0,1.096054423E1
5.936952299E0,8.968306541E0,-2.987468719E0,3.491043806E0,1.007684864E1
5.941924903E0,8.147147179E0,-3.158921242E0,3.759104729E0,9.512395015E0
5.946897508E0,7.527698994E0,-3.197908401E0,3.999514818E0,9.104339024E0
5.951870112E0,7.013954163E0,-3.138055801E0,4.078499794E0,8.699259036E0
5.956842716E0,6.624562740E0,-3.022728920E0,4.049065590E0,8.331665726E0
5.961815320E0,6.365925789E0,-2.862028599E0,3.978519440E0,8.033980071E0
5.966787924E0,6.201294899E0,-2.666192532E0,3.974377871E0,7.833282868E0
5.971760528E0,6.079580784E0,-2.447958469E0,4.038879871E0,7.698464379E0
5.976733133E0,5.966623783E0,-2.231996536E0,4.107240677E0,7.579698799E0
5.981705737E0,5.811684132E0,-2.052517414E0,4.117490768E0,7.412302639E0
5.986678341E0,5.631021023E0,-1.912734032E0,4.038943768E0,7.188881415E0
5.991507299E0,5.499948025E0,-1.852359772E0,3.883668900E0,6.983090227E0
5.996479903E0,5.045382023E0,-2.087571144E0,3.280770302E0,6.370030362E0
6.001452508E0,4.511627674E0,-2.434475899E0,2.994550705E0,5.937069235E0
6.006425112E0,3.909313202E0,-2.794363499E0,2.719803810E0,5.521641951E0
6.011397716E0,3.256259918E0,-3.142582893E0,2.526681900E0,5.182969932E0
6.016370320E0,2.529601097E0,-3.466328621E0,2.415710926E0,4.924426372E0
6.021342924E0,1.799655914E0,-3.767106056E0,2.317859888E0,4.775177893E0
6.026315528E0,1.153169632E0,-4.051337242E0,2.262094259E0,4.781234578E0
6.031288133E0,5.474691391E-1,-4.335119247E0,2.260349751E0,4.919569325E0
6.036260737E0,-5.082130432E-3,-4.608151436E0,2.283966303E0,5.143110689E0
6.041233341E0,-5.113701820E-1,-4.853017330E0,2.301766634E0,5.395498708E0
6.046205945E0,-1.023642540E0,-5.042524815E0,2.325355291E0,5.646430535E0
6.051178549E0,-1.536778450E0,-5.192550659E0,2.366230726E0,5.909595435E0
6.056151153E0,-2.024253845E0,-5.321411133E0,2.371403217E0,6.167541917E0
6.061123758E0,-2.471664429E0,-5.387789249E0,2.326480627E0,6.367881135E0
6.066096362E0,-2.814730644E0,-5.386799335E0,2.257526159E0,6.483574634E0
6.071068966E0,-2.999031067E0,-5.328350067E0,2.185708284E0,6.493290574E0
6.076041570E0,-3.046817780E0,-5.246518135E0,2.115344763E0,6.425241987E0
6.081014174E0,-3.027977943E0,-5.146479130E0,2.067776680E0,6.319066249E0
6.085986778E0,-3.021855354E0,-5.016687870E0,2.102475643E0,6.222473045E0
6.090959383E0,-3.057375908E0,-4.912439346E0,2.140317917E0,6.169324806E0
6.095931987E0,-3.093966484E0,-4.886473179E0,2.076531887E0,6.145098324E0
6.100904591E0,-3.126959801E0,-4.888667107E0,2.040723562E0,6.151544223E0
6.105877195E0,-3.173193455E0,-4.883217335E0,2.078328133E0,6.183398424E0
6.110706935E0,-3.226238251E0,-4.886199951E0,2.099361897E0,6.220199642E0
6.115679539E0,-3.313295841E0,-4.859802723E0,2.058327675E0,6.231558766E0
6.120652143E0,-3.387456417E0,-4.983592987E0,2.049575090E0,6.364889480E0
6.125624747E0,-3.470256329E0,-5.137672901E0,2.037225246E0,6.525997895E0
6.130597351E0,-3.595131874E0,-5.316825390E0,2.052146912E0,6.738316731E0
6.135569956E0,-3.738131046E0,-5.527870178E0,2.113247156E0,6.999770423E0
6.140542560E0,-3.875346661E0,-5.767887592E0,2.255947113E0,7.305897371E0
6.145515164E0,-3.987659454E0,-6.022160530E0,2.415782690E0,7.616025957E0
6.150487768E0,-4.087030411E0,-6.259185314E0,2.497449875E0,7.881527406E0
6.155460372E0,-4.207086563E0,-6.452635765E0,2.543952465E0,8.112199443E0
6.160432976E0,-4.326395512E0,-6.611930370E0,2.662734509E0,8.338193834E0
6.165405581E0,-4.425973892E0,-6.760955811E0,2.798528194E0,8.551697400E0
6.170378185E0,-4.470173836E0,-6.909148693E0,2.895793438E0,8.723784123E0
6.175350789E0,-4.432895184E0,-7.078310490E0,2.878275871E0,8.833884258E0
6.180323393E0,-4.173382282E0,-7.336400032E0,2.748666048E0,8.876657600E0
6.185295997E0,-3.857055187E0,-7.626467705E0,2.652843952E0,8.948601310E0
6.190268601E0,-3.711272717E0,-7.869748116E0,2.688457966E0,9.106826385E0
6.195241206E0,-3.685643196E0,-8.106587410E0,2.800245047E0,9.334993172E0
6.200213810E0,-3.744184494E0,-8.341255188E0,2.930633068E0,9.601253346E0
6.205186414E0,-3.808036327E0,-8.539970398E0,3.105454922E0,9.852719693E0
6.210159018E0,-3.851073265E0,-8.738237381E0,3.295460224E0,1.010186200E1
6.215131622E0,-3.887854576E0,-8.969202995E0,3.447642803E0,1.036572508E1
6.220104226E0,-3.892338276E0,-9.213441849E0,3.575819492E0,1.062187804E1
6.225076831E0,-3.871933937E0,-9.465714455E0,3.698879242E0,1.087535426E1
6.229905737E0,-3.861299515E0,-9.734909058E0,3.790634155E0,1.113763869E1
6.234878341E0,-3.993619919E0,-1.024055386E1,3.884738922E0,1.165800754E1
6.239850945E0,-4.140142918E0,-1.049091339E1,4.024811745E0,1.197493869E1
6.244823549E0,-4.327488899E0,-1.069843102E1,4.203102112E0,1.228208670E1
6.249796153E0,-4.577505589E0,-1.082662296E1,4.397392273E0,1.255015462E1
6.254768758E0,-4.878494740E0,-1.083683205E1,4.611951351E0,1.274781295E1
6.259741362E0,-5.163677216E0,-1.077187538E1,4.810723305E0,1.287788493E1
6.264713966E0,-5.416580677E0,-1.064859009E1,4.957527161E0,1.293479388E1
6.269686570E0,-5.630258560E0,-1.046247196E1,5.037827492E0,1.290514769E1
6.274659174E0,-5.766633511E0,-1.021410751E1,5.087353706E0,1.278527364E1
6.279631778E0,-5.842560768E0,-9.942475319E0,5.125311852E0,1.261971289E1
6.284604383E0,-5.920263767E0,-9.686249733E0,5.125503540E0,1.245567114E1
6.289576987E0,-6.021209717E0,-9.450488091E0,5.061784744E0,1.229586745E1
6.294549591E0,-6.133307457E0,-9.247309685E0,4.924917698E0,1.214022286E1
6.299522195E0,-6.232446671E0,-9.095907211E0,4.703515053E0,1.198757579E1
6.304494799E0,-6.294478416E0,-9.010590553E0,4.400807381E0,1.183969198E1
6.309467403E0,-6.300041199E0,-8.967396736E0,4.027275085E0,1.167577269E1
6.314440008E0,-6.272862434E0,-8.954233170E0,3.578950405E0,1.150373769E1
6.319412612E0,-6.239001274E0,-8.987639427E0,3.095065117E0,1.137023427E1
6.324385216E0,-6.215011597E0,-9.052821159E0,2.631158590E0,1.129171978E1
6.329357820E0,-6.198341846E0,-9.123256683E0,2.228103161E0,1.125245297E1
6.334330424E0,-6.150503159E0,-9.191582680E0,1.843332052E0,1.121212533E1
6.339303028E0,-6.073610783E0,-9.238164902E0,1.463474154E0,1.115231793E1
6.344275633E0,-5.950644970E0,-9.293878555E0,1.099096537E0,1.109028256E1
6.349103810E0,-5.747104645E0,-9.379515648E0,7.621957064E-1,1.102658006E1
6.354076414E0,-5.133680344E0,-9.608527184E0,2.791264057E-1,1.089754009E1
6.359049018E0,-4.796611309E0,-9.652767181E0,1.900635958E-1,1.078051569E1
6.364021622E0,-4.450801849E0,-9.658374786E0,2.246010303E-1,1.063693030E1
6.368994226E0,-4.060213089E0,-9.651887894E0,3.563685417E-1,1.047717847E1
6.373966831E0,-3.600883007E0,-9.616957664E0,6.207264066E-1,1.028773709E1
6.378939435E0,-3.077549934E0,-9.480085373E0,9.742758274E-1,1.001461660E1
6.383912039E0,-2.466277599E0,-9.263837814E0,1.299607992E0,9.674202664E0
6.388884643E0,-1.767155170E0,-9.019592285E0,1.510344267E0,9.314344968E0
6.393857247E0,-1.004300117E0,-8.753401756E0,1.672870278E0,8.968230372E0
6.398829851E0,-1.755743027E-1,-8.488267899E0,1.798573256E0,8.678501254E0
6.403802456E0,6.828203201E-1,-8.268455505E0,1.822008848E0,8.494310818E0
6.408775060E0,1.508350372E0,-8.106963158E0,1.792389393E0,8.438639240E0
6.413747664E0,2.252939224E0,-8.033181190E0,1.718390822E0,8.518251124E0
6.418720268E0,2.839994431E0,-8.044975281E0,1.518326283E0,8.665593478E0
6.423692872E0,3.236193657E0,-8.096820831E0,1.151782870E0,8.795343128E0
6.428665476E0,3.405981064E0,-8.188348770E0,6.791676283E-1,8.894438220E0
6.433638081E0,3.373736382E0,-8.318867683E0,2.159601450E-1,8.979548735E0
6.438610685E0,3.214047432E0,-8.468307495E0,-1.421055794E-1,9.058836941E0
6.443583289E0,2.941689491E0,-8.640331268E0,-3.906152248E-1,9.135723384E0
6.448555893E0,2.593080521E0,-8.797765732E0,-5.656162500E-1,9.189378118E0
6.453528497E0,2.245273590E0,-8.913265228E0,-6.671510935E-1,9.215890684E0
6.458501101E0,1.898780823E0,-8.983418465E0,-6.833002567E-1,9.207283810E0
6.463473706E0,1.611504555E0,-8.990831375E0,-6.281607151E-1,9.155685754E0
6.468302612E0,1.448828697E0,-8.909942627E0,-5.279306173E-1,9.042394204E0
6.473275216E0,1.571674347E0,-8.476380348E0,-4.117143154E-2,8.620955814E0
6.478247820E0,1.930488586E0,-7.992427826E0,2.898648381E-1,8.227375667E0
6.483220424E0,2.292866707E0,-7.442270279E0,6.490391493E-1,7.814465846E0
6.488193028E0,2.565452576E0,-6.888786316E0,9.907134175E-1,7.417441398E0
6.493165633E0,2.798399925E0,-6.327913761E0,1.298031330E0,7.039774147E0
6.498138237E0,3.034592628E0,-5.753182411E0,1.547074795E0,6.685903133E0
6.503110841E0,3.235599518E0,-5.181778431E0,1.766174555E0,6.359190554E0
6.508083445E0,3.379733086E0,-4.544835567E0,2.000401258E0,6.006640597E0
6.513056049E0,3.490725517E0,-3.871583939E0,2.201401234E0,5.658665410E0
6.518028653E0,3.582778931E0,-3.212650299E0,2.330855846E0,5.346991284E0
6.523001258E0,3.646098137E0,-2.542183399E0,2.393779039E0,5.048455818E0
6.527973862E0,3.656596184E0,-1.870113373E0,2.345174789E0,4.729467673E0
6.532946466E0,3.657197952E0,-1.242122173E0,2.183178902E0,4.436691839E0
6.537919070E0,3.683528900E0,-6.847634315E-1,1.963155985E0,4.229807033E0
6.542891674E0,3.718595505E0,-2.005672455E-1,1.719085217E0,4.101637933E0
6.547864278E0,3.757458687E0,2.152385712E-1,1.411097646E0,4.019455186E0
6.552836883E0,3.787932396E0,6.103873253E-1,1.018444300E0,3.969664131E0
6.557809487E0,3.814579487E0,9.775910378E-1,6.112672091E-1,3.985015496E0
6.562782091E0,3.832441807E0,1.307263374E0,1.811411828E-1,4.053314676E0
6.567754695E0,3.798199654E0,1.620795727E0,-2.730895579E-1,4.138583973E0
6.572727299E0,3.716341972E0,1.941918373E0,-6.618897915E-1,4.245037423E0
6.577699903E0,3.586677074E0,2.263389587E0,-9.839795828E-1,4.353780045E0
6.582672508E0,3.387538433E0,2.566087723E0,-1.285897613E0,4.440017512E0
6.587502195E0,3.157036781E0,2.846751690E0,-1.515831232E0,4.513160838E0
6.592474799E0,2.668165684E0,3.245820522E0,-1.556861639E0,4.480879059E0
6.597447403E0,2.540229321E0,3.420643806E0,-1.337973595E0,4.465841734E0
6.602420008E0,2.478678703E0,3.553371191E0,-9.844256639E-1,4.442903198E0
6.607392612E0,2.466726780E0,3.648996115E0,-4.951333404E-1,4.432276015E0
6.612365216E0,2.461421967E0,3.719800472E0,1.450725496E-1,4.462797295E0
6.617337820E0,2.450956345E0,3.763699055E0,8.030314445E-1,4.562617350E0
6.622310424E0,2.437998772E0,3.819351435E0,1.427406311E0,4.750660182E0
6.627283028E0,2.475237370E0,3.913238525E0,2.050504208E0,5.064069835E0
6.632255633E0,2.576997757E0,4.043117046E0,2.692280769E0,5.498735185E0
6.637228237E0,2.692969799E0,4.192388058E0,3.346291304E0,6.002155401E0
6.642200841E0,2.806438446E0,4.332590103E0,3.960730791E0,6.506521509E0
6.647173445E0,2.934269428E0,4.478399754E0,4.491335869E0,6.988426097E0
6.652146049E0,3.098029137E0,4.649180412E0,4.898997784E0,7.430534457E0
6.657118653E0,3.257037640E0,4.833085060E0,5.128508091E0,7.763285427E0
6.662091258E0,3.423223019E0,4.994263649E0,5.153945923E0,7.951369933E0
6.667063862E0,3.634735584E0,5.151803970E0,4.990547180E0,8.041016607E0
6.672036466E0,3.898459435E0,5.317459106E0,4.648947239E0,8.067593677E0
6.677009070E0,4.242627621E0,5.440690041E0,4.247373104E0,8.101924187E0
6.681981674E0,4.621488094E0,5.504646301E0,3.867947578E0,8.162126045E0
6.686954278E0,4.925006866E0,5.538100243E0,3.489812374E0,8.191766436E0
6.691926883E0,5.158062935E0,5.579357147E0,3.115991592E0,8.212444400E0
6.696899487E0,5.380546570E0,5.618871689E0,2.785258055E0,8.263150905E0
6.701872091E0,5.633117676E0,5.615998745E0,2.486188650E0,8.333822092E0
6.706700997E0,5.921883583E0,5.566087246E0,2.217530727E0,8.424219544E0
6.711673601E0,6.465486526E0,5.430111408E0,1.857632637E0,8.645196640E0
6.716646206E0,6.797286987E0,5.433771133E0,1.764893055E0,8.879404632E0
6.721618810E0,7.168600082E0,5.435861588E0,1.723670959E0,9.160156108E0
6.726591414E0,7.598487854E0,5.391000748E0,1.721815586E0,9.474415847E0
6.731564018E0,8.086826324E0,5.306450367E0,1.792585135E0,9.837100028E0
6.736536622E0,8.621587753E0,5.225399017E0,1.942501664E0,1.026693153E1
6.741509226E0,9.173763275E0,5.217170715E0,2.187332392E0,1.077781174E1
6.746481831E0,9.764245987E0,5.291036129E0,2.454390526E0,1.137363600E1
6.751454435E0,1.040665627E1,5.408399105E0,2.676034451E0,1.202956507E1
6.756427039E0,1.104521942E1,5.566528320E0,2.828228474E0,1.268786767E1
6.761399643E0,1.165539551E1,5.765144348E0,2.896615982E0,1.332199377E1
6.766372247E0,1.226515102E1,5.989583015E0,2.950354576E0,1.396472794E1
6.771344851E0,1.283776855E1,6.227571964E0,3.048715115E0,1.459060033E1
6.776317456E0,1.328884315E1,6.454959869E0,3.176729679E0,1.511130275E1
6.781290060E0,1.361802673E1,6.669243336E0,3.298197269E0,1.551797551E1
6.786262664E0,1.379164886E1,6.889467239E0,3.367763758E0,1.578024620E1
6.791235268E0,1.382152748E1,7.141819000E0,3.397439480E0,1.592428320E1
6.796207872E0,1.372218132E1,7.438216209E0,3.385237455E0,1.597138545E1
6.801180476E0,1.356281662E1,7.721060753E0,3.305098534E0,1.595269413E1
6.806153081E0,1.336487579E1,7.959182262E0,3.195471525E0,1.588016138E1
6.811125685E0,1.307819653E1,8.162153244E0,3.080446482E0,1.572097708E1
6.816098289E0,1.272696495E1,8.303707123E0,2.883875608E0,1.546751200E1
6.821070893E0,1.236877060E1,8.367133141E0,2.582278967E0,1.515465499E1
6.825899070E0,1.199054241E1,8.337407112E0,2.256010771E0,1.477751837E1
6.830871674E0,1.110611248E1,8.045656204E0,1.742575169E0,1.382443078E1
6.835844278E0,1.052845192E1,7.820506573E0,1.502288103E0,1.320096559E1
6.840816883E0,9.868302345E0,7.580915451E0,1.233498931E0,1.250500659E1
6.845789487E0,9.140890121E0,7.370241165E0,9.577467442E-1,1.178106981E1
6.850762091E0,8.378102303E0,7.207847595E0,6.872208118E-1,1.107329841E1
6.855734695E0,7.571198940E0,7.077268124E0,4.412510395E-1,1.037330613E1
6.860707299E0,6.782930374E0,6.966717720E0,2.033820450E-1,9.725464745E0
6.865679903E0,6.195146561E0,6.809207439E0,-1.165516973E-1,9.206450519E0
6.870652508E0,5.914762974E0,6.561394215E0,-5.504963994E-1,8.850952568E0
6.875625112E0,5.900020599E0,6.220461369E0,-1.046408057E0,8.637091671E0
6.880597716E0,6.066229343E0,5.752546310E0,-1.600086451E0,8.511827310E0
6.885570320E0,6.431577682E0,5.064023018E0,-2.138139963E0,8.460565177E0
6.890542924E0,6.914542198E0,4.152704239E0,-2.549411297E0,8.459039205E0
6.895515528E0,7.376724720E0,3.109934807E0,-2.816534519E0,8.486496851E0
6.900488133E0,7.749648094E0,2.008106232E0,-2.868036032E0,8.503832483E0
6.905460737E0,7.974578381E0,9.650259018E-1,-2.621105194E0,8.449577964E0
6.910433341E0,8.093116760E0,7.914638519E-2,-2.251173973E0,8.400749211E0
6.915405945E0,8.101358414E0,-5.918359756E-1,-1.928300738E0,8.348689820E0
6.920378549E0,8.004568100E0,-1.007306576E0,-1.630700588E0,8.230854234E0
6.925351153E0,7.955721378E0,-1.191665649E0,-1.393521070E0,8.164280167E0
6.930323758E0,8.097467422E0,-1.222385406E0,-1.196753263E0,8.276196174E0
6.935296362E0,8.423801422E0,-1.212974072E0,-9.774596691E-1,8.566630837E0
6.940268966E0,8.840569496E0,-1.288614273E0,-7.020530105E-1,8.961533027E0
6.945097820E0,9.241527557E0,-1.438055992E0,-2.385048568E-1,9.355785440E0
6.950070424E0,9.933697701E0,-1.651071072E0,1.086974025E0,1.012846969E1
6.955043028E0,1.005837440E1,-1.868602276E0,1.935589433E0,1.041196795E1
6.960015633E0,1.002051735E1,-2.157896996E0,2.922178507E0,1.065863099E1
6.964988237E0,9.751496315E0,-2.554631710E0,3.950540543E0,1.082703072E1
6.969960841E0,9.252394676E0,-3.046252728E0,4.898593903E0,1.090333367E1
6.974933445E0,8.546175957E0,-3.579122066E0,5.659463882E0,1.085710687E1
6.979906049E0,7.682332516E0,-4.154282570E0,6.184648514E0,1.070169023E1
6.984878653E0,6.700803280E0,-4.765403271E0,6.491115570E0,1.047589682E1
6.989851258E0,5.703518391E0,-5.377452850E0,6.620187283E0,1.026031193E1
6.994823862E0,4.811025143E0,-5.929427147E0,6.634862900E0,1.011560551E1
6.999796466E0,4.076294899E0,-6.339345455E0,6.583834171E0,1.000751484E1
7.004769070E0,3.506464481E0,-6.583077431E0,6.510959148E0,9.900746974E0
7.009741674E0,3.125115395E0,-6.708620071E0,6.424199104E0,9.800115490E0
7.014714278E0,2.907628059E0,-6.759635448E0,6.324348927E0,9.702801743E0
7.019686883E0,2.817488670E0,-6.765386581E0,6.225982666E0,9.616213296E0
7.024659487E0,2.796648026E0,-6.760036945E0,6.100450516E0,9.525483514E0
7.029632091E0,2.722772598E0,-6.729707241E0,5.924214363E0,9.370099572E0
7.034604695E0,2.562190056E0,-6.639068604E0,5.636309147E0,9.077997059E0
7.039577299E0,2.338741302E0,-6.514950275E0,5.188159943E0,8.650508168E0
7.044549903E0,2.042749405E0,-6.360208988E0,4.661489964E0,8.145831583E0
7.049522508E0,1.695717812E0,-6.194331646E0,4.142209530E0,7.642192305E0
7.054495112E0,1.347835541E0,-6.075060844E0,3.654266357E0,7.216417915E0
7.059467716E0,9.299821854E-1,-5.980673313E0,3.183740139E0,6.838824564E0
7.064297403E0,3.444471359E-1,-5.951745033E0,2.674314260E0,6.534054601E0
7.069270008E0,-1.088693142E0,-5.913460255E0,1.750892878E0,6.262578607E0
7.074242612E0,-1.914159298E0,-5.958387375E0,1.478320241E0,6.430537821E0
7.079215216E0,-2.634709835E0,-5.944770813E0,1.307725549E0,6.632657239E0
7.084187820E0,-3.231308460E0,-5.891397953E0,1.159788251E0,6.818726640E0
7.089160424E0,-3.797270775E0,-5.831213951E0,9.986166954E-1,7.029904465E0
7.094133028E0,-4.344591618E0,-5.727949142E0,8.599968553E-1,7.240474590E0
7.099105633E0,-4.835035324E0,-5.593136787E0,7.749413848E-1,7.433793100E0
7.104078237E0,-5.304503441E0,-5.478809357E0,7.360386252E-1,7.661387706E0
7.109050841E0,-5.738633633E0,-5.377070904E0,7.096008062E-1,7.896096553E0
7.114023445E0,-6.106470108E0,-5.237287045E0,6.909263134E-1,8.074375018E0
7.118996049E0,-6.358083725E0,-5.042686462E0,7.038328052E-1,8.145507721E0
7.123968653E0,-6.479542732E0,-4.805459976E0,7.720786929E-1,8.103889505E0
7.128941258E0,-6.485712528E0,-4.542934895E0,8.525457978E-1,7.964267624E0
7.133913862E0,-6.374726295E0,-4.310865402E0,9.068709612E-1,7.748748983E0
7.138886466E0,-6.202056408E0,-4.093192577E0,9.374957085E-1,7.489901693E0
7.143859070E0,-6.027853966E0,-3.890627384E0,9.110265970E-1,7.232010394E0
7.148831674E0,-5.890603065E0,-3.737216711E0,7.921262383E-1,7.020929938E0
7.153804278E0,-5.797562122E0,-3.652353287E0,5.911930799E-1,6.877566456E0
7.158776883E0,-5.734395981E0,-3.648022652E0,3.618542254E-1,6.806049149E0
7.163749487E0,-5.696345329E0,-3.683586121E0,1.596995443E-1,6.785474247E0
7.168722091E0,-5.645174980E0,-3.751932621E0,-7.630934939E-3,6.778278335E0
7.173694695E0,-5.643024445E0,-3.821630478E0,-1.611643434E-1,6.817225120E0
7.178667299E0,-5.737604618E0,-3.873179913E0,-2.862472832E-1,6.928460644E0
7.183496206E0,-5.839374065E0,-3.927885771E0,-3.775406480E-1,7.047631733E0
7.188468810E0,-5.894770622E0,-4.019046307E0,-4.144896567E-1,7.146527519E0
7.193441414E0,-5.877052307E0,-4.122395515E0,-3.289043903E-1,7.186241487E0
7.198414018E0,-5.836568832E0,-4.204453468E0,-2.170311511E-1,7.196531611E0
7.203386622E0,-5.787752151E0,-4.262959480E0,-7.922956347E-2,7.188683873E0
7.208359226E0,-5.737848282E0,-4.314816475E0,6.261998415E-2,7.179447429E0
7.213331831E0,-5.679714680E0,-4.383877277E0,2.176151872E-1,7.178084368E0
7.218304435E0,-5.620593548E0,-4.489303589E0,3.445740044E-1,7.201642159E0
7.223277039E0,-5.574882984E0,-4.638195515E0,4.477710724E-1,7.265856925E0
7.228249643E0,-5.540205479E0,-4.842162132E0,5.362114906E-1,7.377528965E0
7.233222247E0,-5.533330917E0,-5.081835270E0,5.738081932E-1,7.534723392E0
7.238194851E0,-5.499268055E0,-5.361796379E0,5.391967297E-1,7.699450803E0
7.243167456E0,-5.454803944E0,-5.684053421E0,4.542229176E-1,7.891113218E0
7.248140060E0,-5.443029404E0,-6.000452995E0,3.715205193E-1,8.109872547E0
7.253112664E0,-5.437652111E0,-6.291486740E0,3.098392189E-1,8.321470196E0
7.258085268E0,-5.410023689E0,-6.599836349E0,2.354331911E-1,8.537073559E0
7.263057872E0,-5.312400818E0,-6.927549362E0,1.482918859E-1,8.731238921E0
7.268030476E0,-5.161669731E0,-7.248127937E0,8.674669266E-2,8.898635738E0
7.273003081E0,-5.017750263E0,-7.537521839E0,6.008511782E-2,9.055145686E0
7.277975685E0,-4.909385204E0,-7.809937477E0,4.189717770E-2,9.224908772E0
7.282948289E0,-4.793554306E0,-8.079444885E0,3.671610355E-2,9.394516518E0
7.287920893E0,-4.682268620E0,-8.321859360E0,7.558029890E-2,9.548963033E0
7.292893497E0,-4.599495888E0,-8.527504921E0,1.438758969E-1,9.689912429E0
7.297866101E0,-4.526124477E0,-8.717618942E0,2.508050799E-1,9.825761344E0
7.302694174E0,-4.490742207E0,-8.904075623E0,3.644341230E-1,9.979085153E0
7.307666778E0,-4.455167770E0,-9.200822830E0,5.668208599E-1,1.023840547E1
7.312639383E0,-4.512690067E0,-9.222101212E0,7.541605830E-1,1.029467244E1
7.317611987E0,-4.579521656E0,-9.183204651E0,9.593572617E-1,1.030648498E1
7.322584591E0,-4.631756306E0,-9.067565918E0,1.177044392E0,1.024984642E1
7.327557195E0,-4.626371861E0,-8.892179489E0,1.380413294E0,1.011828610E1
7.332529799E0,-4.553856850E0,-8.702874184E0,1.542760611E0,9.942723046E0
7.337502403E0,-4.416668415E0,-8.507286072E0,1.642117739E0,9.725092640E0
7.342475008E0,-4.207696915E0,-8.318078041E0,1.661383152E0,9.468649830E0
7.347447612E0,-3.943728447E0,-8.188462257E0,1.564448833E0,9.222332045E0
7.352420216E0,-3.662983418E0,-8.154667854E0,1.339663506E0,9.039400071E0
7.357392820E0,-3.386849880E0,-8.207197189E0,1.021033883E0,8.937077151E0
7.362365424E0,-3.165333748E0,-8.319566727E0,6.235517859E-1,8.923191418E0
7.367338028E0,-2.998115540E0,-8.472228050E0,2.005579472E-1,8.989302999E0
7.372310633E0,-2.901596069E0,-8.643128395E0,-1.949061751E-1,9.119260750E0
7.377283237E0,-2.860995770E0,-8.798009872E0,-5.120818615E-1,9.265662542E0
7.382255841E0,-2.811292171E0,-8.931386948E0,-7.668154836E-1,9.394734827E0
7.387228445E0,-2.709076405E0,-9.047557831E0,-9.535907507E-1,9.492456636E0
7.392201049E0,-2.522929668E0,-9.110198975E0,-1.028660536E0,9.508892783E0
7.397173653E0,-2.309970856E0,-9.111984253E0,-1.003545046E0,9.453640835E0
7.402146258E0,-2.069848537E0,-9.048041344E0,-9.304040670E-1,9.328289064E0
7.407118862E0,-1.787896156E0,-8.930533409E0,-8.514963388E-1,9.147461159E0
7.412091466E0,-1.463866234E0,-8.747931480E0,-6.919999123E-1,8.896520298E0
7.417064070E0,-1.092791557E0,-8.460196495E0,-3.920296431E-1,8.539485076E0
7.421892924E0,-6.910448074E-1,-8.017158508E0,-3.009759635E-2,8.046942235E0
7.426865528E0,3.275804520E-1,-6.730062485E0,8.421241641E-1,6.790450877E0
7.431838133E0,1.121410370E0,-5.799807549E0,1.166123629E0,6.021226880E0
7.436810737E0,2.012759209E0,-4.853027344E0,1.317775369E0,5.416604652E0
7.441783341E0,3.024479866E0,-4.040418625E0,1.202209115E0,5.188233599E0
7.446755945E0,4.071700096E0,-3.368761301E0,8.801164031E-1,5.357415353E0
7.451728549E0,5.060007095E0,-2.811168194E0,4.477247894E-1,5.805755412E0
7.456701153E0,5.943052292E0,-2.464506626E0,-7.075823843E-2,6.434179838E0
7.461673758E0,6.605462074E0,-2.331477642E0,-6.174495220E-1,7.032009750E0
7.466646362E0,6.949167252E0,-2.404225588E0,-1.232234836E0,7.455845281E0
7.471618966E0,6.988852501E0,-2.619478703E0,-1.828329802E0,7.684303340E0
7.476591570E0,6.823169708E0,-2.908819675E0,-2.328951120E0,7.774373936E0
7.481564174E0,6.491064072E0,-3.234823704E0,-2.638999701E0,7.717662638E0
7.486536778E0,6.012481689E0,-3.564747334E0,-2.699965239E0,7.493141658E0
7.491509383E0,5.445633888E0,-3.868397236E0,-2.506230831E0,7.134466946E0
7.496481987E0,4.865503311E0,-4.120328426E0,-2.102384806E0,6.713438067E0
7.501454591E0,4.303874969E0,-4.261891365E0,-1.559042215E0,6.254412074E0
7.506427195E0,3.778143883E0,-4.227460861E0,-9.063062668E-1,5.741705982E0
7.511399799E0,3.314858437E0,-4.024032116E0,-1.651389301E-1,5.216166388E0
7.516372403E0,2.985660553E0,-3.654381752E0,6.098839045E-1,4.758217450E0
7.521345008E0,2.845116615E0,-3.159938335E0,1.274047732E0,4.438817012E0
7.526317612E0,2.854364395E0,-2.598953724E0,1.721761584E0,4.226868760E0
7.531290216E0,2.912334442E0,-2.053604126E0,1.934079051E0,4.054583035E0
7.536262820E0,2.980181694E0,-1.529506683E0,1.957123995E0,3.879588632E0
7.541092456E0,3.047344208E0,-1.010503769E0,1.824007392E0,3.692482573E0
7.546065060E0,2.914361000E0,-2.080950737E-1,1.221790195E0,3.166950407E0
7.551037664E0,2.730395317E0,1.430420876E-1,8.456883430E-1,2.861941369E0
7.556010268E0,2.495369911E0,4.786090851E-1,4.309344888E-1,2.577138371E0
7.560982872E0,2.180715561E0,7.773647308E-1,4.066561162E-2,2.315484825E0
7.565955476E0,1.812853813E0,1.029988766E0,-3.289400041E-1,2.110809639E0
7.570928081E0,1.442152023E0,1.253565788E0,-6.674441695E-1,2.024033439E0
7.575900685E0,1.061550140E0,1.443651199E0,-9.359518886E-1,2.021638797E0
7.580873289E0,6.807727814E-1,1.614964485E0,-1.100600004E0,2.069512560E0
7.585845893E0,3.262958527E-1,1.786999226E0,-1.173013091E0,2.162358649E0
7.590818497E0,-8.892059326E-3,1.957707405E0,-1.169706345E0,2.280550435E0
7.595791101E0,-3.103451729E-1,2.112950802E0,-1.059761167E0,2.384107579E0
7.600763706E0,-5.230307579E-1,2.260050774E0,-8.792339563E-1,2.480814992E0
7.605736310E0,-6.328353882E-1,2.418004274E0,-6.784791946E-1,2.589895619E0
7.610708914E0,-6.877651215E-1,2.574786663E0,-4.599806070E-1,2.704464713E0
7.615681518E0,-6.857748032E-1,2.725273848E0,-2.407395542E-1,2.820524802E0
7.620654122E0,-6.391100883E-1,2.883563757E0,-2.585834265E-2,2.953653720E0
7.625626726E0,-6.316766739E-1,3.047085285E0,1.965460926E-1,3.118072245E0
7.630599331E0,-6.634488106E-1,3.182352066E0,3.854127228E-1,3.273541196E0
7.635571935E0,-6.890988350E-1,3.262938976E0,5.978152156E-1,3.388068919E0
7.640544539E0,-7.277212143E-1,3.334423542E0,8.334853649E-1,3.513211690E0
7.645517143E0,-7.863693237E-1,3.380232573E0,1.049139261E0,3.625609211E0
7.650489747E0,-8.243536949E-1,3.398045540E0,1.251522422E0,3.713836410E0
7.655462351E0,-8.796849251E-1,3.412147522E0,1.426003695E0,3.801326455E0
7.660291258E0,-9.823069572E-1,3.416340351E0,1.621550918E0,3.907139072E0
7.665263862E0,-1.069697857E0,3.356333494E0,2.035386086E0,4.068417941E0
7.670236466E0,-1.020892143E0,3.372199059E0,2.211557388E0,4.159919872E0
7.675209070E0,-9.556541443E-1,3.406437397E0,2.350842476E0,4.247770113E0
7.680181674E0,-9.312109947E-1,3.423384666E0,2.414870262E0,4.291656425E0
7.685154278E0,-9.378247261E-1,3.416041136E0,2.415710688E0,4.287716220E0
7.690126883E0,-9.346256256E-1,3.382257938E0,2.386905193E0,4.243879148E0
7.695099487E0,-9.143500328E-1,3.315012455E0,2.347586632E0,4.163713073E0
7.700072091E0,-9.317064285E-1,3.248151541E0,2.314458609E0,4.095764147E0
7.705044695E0,-9.768309593E-1,3.189106703E0,2.299455404E0,4.051184449E0
7.710017299E0,-9.540143013E-1,3.137882710E0,2.262049198E0,3.984133251E0
7.714989903E0,-8.322916031E-1,3.106373310E0,2.216652393E0,3.905868954E0
7.719962508E0,-6.597123146E-1,3.077700138E0,2.182273149E0,3.830114173E0
7.724935112E0,-4.794054031E-1,3.044661045E0,2.156359434E0,3.761605565E0
7.729907716E0,-2.986173630E-1,3.014367580E0,2.157842636E0,3.719122085E0
7.734880320E0,-1.292834282E-1,2.982055664E0,2.148311615E0,3.677582492E0
7.739852924E0,2.876853943E-2,2.962216854E0,2.132632732E0,3.650161461E0
7.744825528E0,1.492705345E-1,2.966791630E0,2.115684032E0,3.646951219E0
7.749798133E0,2.466721535E-1,2.998178005E0,2.095119953E0,3.665985014E0
7.754770737E0,3.926429749E-1,3.061016560E0,2.078139067E0,3.720571578E0
7.759743341E0,5.941238403E-1,3.135974407E0,2.062177658E0,3.799986225E0
7.764715945E0,8.412904739E-1,3.189376354E0,2.032929897E0,3.874621937E0
7.769688549E0,1.157706738E0,3.232945442E0,1.995049000E0,3.971453340E0
7.774661153E0,1.531038284E0,3.271226883E0,1.938897729E0,4.099308228E0
7.779489174E0,1.913261414E0,3.278177261E0,1.867938042E0,4.230390989E0
7.784461778E0,2.792771339E0,3.091434479E0,1.442651510E0,4.408830034E0
7.789434383E0,3.292226315E0,2.922679901E0,1.211151958E0,4.565928271E0
7.794406987E0,3.765873909E0,2.716832161E0,9.796763659E-1,4.745813847E0
7.799379591E0,4.156487465E0,2.457320690E0,7.008950710E-1,4.879146126E0
7.804352195E0,4.443065166E0,2.166082859E0,4.137064517E-1,4.960231452E0
7.809324799E0,4.609603882E0,1.889085293E0,2.047342956E-1,4.985880797E0
7.814297403E0,4.678499222E0,1.634069443E0,7.661065459E-2,4.956249298E0
7.819270008E0,4.753130436E0,1.430033207E0,-6.394326687E-3,4.963595955E0
7.824242612E0,4.914921284E0,1.303291321E0,-5.379661918E-2,5.085067705E0
7.829215216E0,5.161322594E0,1.253677845E0,-2.745485306E-2,5.311469931E0
7.834187820E0,5.437006950E0,1.302419662E0,6.760469079E-2,5.591235279E0
7.839160424E0,5.732051849E0,1.432394981E0,2.381682992E-1,5.913112372E0
7.844133028E0,6.067594528E0,1.624135017E0,5.024260283E-1,6.301265732E0
7.849105633E0,6.388181210E0,1.886850357E0,8.262095451E-1,6.712055248E0
7.854078237E0,6.652541637E0,2.222415447E0,1.134571075E0,7.105117324E0
7.859050841E0,6.872157574E0,2.613655567E0,1.419851542E0,7.488239015E0
7.864023445E0,7.027585030E0,3.014856815E0,1.674589872E0,7.828190353E0
7.868996049E0,7.113720894E0,3.399478436E0,1.891281605E0,8.107923575E0
7.873968653E0,7.154304504E0,3.736346245E0,2.105400085E0,8.341286815E0
7.878941258E0,7.192140102E0,3.999076366E0,2.275995255E0,8.538128919E0
7.883913862E0,7.281936646E0,4.197190285E0,2.424221516E0,8.747562949E0
7.888886466E0,7.423529148E0,4.316432953E0,2.559081316E0,8.960428317E0
7.893859070E0,7.540466309E0,4.321193218E0,2.613206387E0,9.075251545E0
7.898687924E0,7.546848774E0,4.253360748E0,2.558183908E0,9.032735410E0
7.903660528E0,7.138825417E0,4.120796204E0,2.352115154E0,8.571828007E0
7.908633133E0,6.749714851E0,4.148308754E0,2.234397888E0,8.231624992E0
7.913605737E0,6.224878788E0,4.338619232E0,2.140375614E0,7.883777048E0
7.918578341E0,5.643766880E0,4.698902130E0,2.010301352E0,7.614006655E0
7.923550945E0,5.207281590E0,5.200139046E0,1.792196512E0,7.574245572E0
7.928523549E0,4.977328777E0,5.641129017E0,1.456138611E0,7.662667812E0
7.933496153E0,4.972279072E0,5.899553299E0,1.051133633E0,7.786730393E0
7.938468758E0,5.321971893E0,6.048704624E0,5.547797680E-1,8.075765788E0
7.943441362E0,6.000302315E0,6.082668781E0,-2.416636050E-2,8.544183483E0
7.948413966E0,6.849632740E0,5.990749836E0,-6.385837197E-1,9.122189509E0
7.953386570E0,7.727162361E0,5.752933979E0,-1.220106125E0,9.710507014E0
7.958359174E0,8.510406494E0,5.278205872E0,-1.767250538E0,1.016905356E1
7.963331778E0,9.106448174E0,4.557465076E0,-2.248052835E0,1.042840485E1
7.968304383E0,9.456718445E0,3.727993965E0,-2.540266037E0,1.047761491E1
7.973276987E0,9.572502136E0,2.939166546E0,-2.746465683E0,1.038337955E1
7.978249591E0,9.567839622E0,2.234930992E0,-2.942760229E0,1.025662271E1
7.983222195E0,9.635023117E0,1.625337601E0,-3.100106001E0,1.025114872E1
7.988194799E0,9.834017754E0,1.201282978E0,-3.148818016E0,1.039548175E1
7.993167403E0,1.010685158E1,1.081696987E0,-3.050475121E0,1.061244155E1
7.998140008E0,1.034053516E1,1.198733807E0,-2.905169010E0,1.080757314E1
8.003112612E0,1.053704357E1,1.341146469E0,-2.767809391E0,1.097673585E1
8.008085216E0,1.077235794E1,1.398236752E0,-2.545439482E0,1.115697198E1
8.013057820E0,1.108174706E1,1.381361485E0,-2.157414675E0,1.137399294E1
8.017887456E0,1.138053036E1,1.335880280E0,-1.524793148E0,1.155967307E1
8.022860060E0,1.163779831E1,1.208510399E0,4.877336621E-1,1.171053931E1
8.027832664E0,1.145119667E1,1.086616993E0,1.621844888E0,1.161641177E1
8.032805268E0,1.113466072E1,9.175291061E-1,2.667754173E0,1.148648951E1
8.037777872E0,1.075538826E1,6.916432381E-1,3.580486774E0,1.135678795E1
8.042750476E0,1.028260422E1,4.234018326E-1,4.377721786E0,1.118372329E1
8.047723081E0,9.700290680E0,9.883785248E-2,5.003562927E0,1.091517522E1
8.052695685E0,9.014090538E0,-2.432818413E-1,5.400170803E0,1.051070212E1
8.057668289E0,8.251289368E0,-6.382331848E-1,5.634309769E0,1.001182123E1
8.062640893E0,7.424863338E0,-1.087714672E0,5.713582039E0,9.431687999E0
8.067613497E0,6.547883511E0,-1.521559238E0,5.624494076E0,8.764978870E0
8.072586101E0,5.659650326E0,-1.896002769E0,5.413644791E0,8.058164694E0
8.077558706E0,4.799305916E0,-2.234304905E0,5.122695923E0,7.366645722E0
8.082531310E0,3.967632771E0,-2.566811085E0,4.814394951E0,6.746037925E0
8.087503914E0,3.138891697E0,-2.859403610E0,4.527182579E0,6.206787591E0
8.092476518E0,2.347007751E0,-3.068561077E0,4.230287552E0,5.728860728E0
8.097449122E0,1.616167068E0,-3.170131683E0,3.853166342E0,5.244866227E0
8.102421726E0,9.417753220E-1,-3.202198505E0,3.397382021E0,4.762690481E0
8.107394331E0,3.571891785E-1,-3.191161156E0,2.933315039E0,4.349187366E0
8.112366935E0,-8.285331726E-2,-3.185032368E0,2.488068581E0,4.042496891E0
8.117339539E0,-4.646878242E-1,-3.179072857E0,2.079314232E0,3.827007536E0
8.122312143E0,-8.816633224E-1,-3.099098682E0,1.784074783E0,3.683023987E0
8.127284747E0,-1.307549000E0,-2.969178200E0,1.578793168E0,3.608086950E0
8.132257351E0,-1.696947575E0,-2.849118233E0,1.404126644E0,3.601204994E0
8.137086153E0,-2.009056091E0,-2.758512020E0,1.266893983E0,3.640153198E0
8.142058758E0,-2.399715424E0,-2.509205818E0,1.152063012E0,3.658141213E0
8.147031362E0,-2.684972763E0,-2.451846123E0,1.131897807E0,3.808125627E0
8.152003966E0,-2.998798370E0,-2.411437035E0,1.081904650E0,3.997291322E0
8.156976570E0,-3.345818996E0,-2.387639046E0,9.953601956E-1,4.229192226E0
8.161949174E0,-3.747327328E0,-2.358423233E0,8.488171101E-1,4.508338134E0
8.166921778E0,-4.133872032E0,-2.306795597E0,6.761332154E-1,4.781982855E0
8.171894383E0,-4.479046822E0,-2.263409138E0,4.704010189E-1,5.040452209E0
8.176866987E0,-4.778039932E0,-2.270878315E0,2.602422833E-1,5.296629113E0
8.181839591E0,-4.999849319E0,-2.300219536E0,1.290209293E-1,5.505102136E0
8.186812195E0,-5.168597221E0,-2.313121319E0,4.313249886E-2,5.662754443E0
8.191784799E0,-5.310799599E0,-2.309665203E0,-4.996262491E-2,5.791514654E0
8.196757403E0,-5.395614624E0,-2.285327196E0,-1.666256636E-1,5.862008331E0
8.201730008E0,-5.444762230E0,-2.249773264E0,-2.802841961E-1,5.897921219E0
8.206702612E0,-5.487126827E0,-2.227093458E0,-3.261139691E-1,5.930839436E0
8.211675216E0,-5.546712875E0,-2.236431122E0,-3.114618659E-1,5.988710744E0
8.216647820E0,-5.649791718E0,-2.270381927E0,-2.890940011E-1,6.095765406E0
8.221620424E0,-5.755731583E0,-2.297838449E0,-2.374639660E-1,6.202007476E0
8.226593028E0,-5.869317532E0,-2.313867331E0,-1.661139876E-1,6.311138104E0
8.231565633E0,-5.985762119E0,-2.339843988E0,-1.013841256E-1,6.427635396E0
8.236538237E0,-6.047748566E0,-2.402102232E0,-2.662500739E-2,6.507385553E0
8.241510841E0,-6.064927101E0,-2.500472546E0,3.642724082E-2,6.560261476E0
8.246483445E0,-6.140128136E0,-2.581984997E0,9.231200069E-2,6.661556992E0
8.251456049E0,-6.177725792E0,-2.677829504E0,1.597325355E-1,6.735026451E0
8.256284122E0,-6.111825943E0,-2.816511154E0,2.028743625E-1,6.732630203E0
8.261256726E0,-5.990156651E0,-3.045685768E0,2.792632580E-1,6.725783706E0
8.266229331E0,-5.917344093E0,-3.200215816E0,3.040538132E-1,6.734151106E0
8.271201935E0,-5.802551270E0,-3.349592686E0,3.343060315E-1,6.708288375E0
8.276174539E0,-5.667439461E0,-3.503472805E0,3.601401448E-1,6.672622622E0
8.281147143E0,-5.514503479E0,-3.673871994E0,3.598423004E-1,6.636005616E0
8.286119747E0,-5.334268570E0,-3.877575397E0,3.431522548E-1,6.603617615E0
8.291092351E0,-5.131622791E0,-4.107492447E0,3.197326064E-1,6.580826362E0
8.296064956E0,-4.925756454E0,-4.351613045E0,3.088816106E-1,6.579895181E0
8.301037560E0,-4.745382786E0,-4.640886784E0,3.416084051E-1,6.646291013E0
8.306010164E0,-4.578531742E0,-4.979916096E0,4.106111228E-1,6.777250086E0
8.310982768E0,-4.406044006E0,-5.334924698E0,4.800174534E-1,6.935781288E0
8.315955372E0,-4.215967178E0,-5.688973427E0,5.452066064E-1,7.101834139E0
8.320927976E0,-4.032208920E0,-6.046601772E0,5.992300510E-1,7.292405530E0
8.325900581E0,-3.859516621E0,-6.417121887E0,6.494929790E-1,7.516459472E0
8.330873185E0,-3.664361954E0,-6.776272297E0,6.984782219E-1,7.735197903E0
8.335845789E0,-3.453941822E0,-7.123788834E0,7.530977726E-1,7.952687452E0
8.340818393E0,-3.268891335E0,-7.461659431E0,8.130959272E-1,8.186765968E0
8.345790997E0,-3.113920212E0,-7.763171196E0,8.807862401E-1,8.410654582E0
8.350763601E0,-2.941098213E0,-8.008759499E0,9.657655954E-1,8.586209326E0
8.355736206E0,-2.740886688E0,-8.200642586E0,1.084422350E0,8.714296902E0
8.360708810E0,-2.537287235E0,-8.317251205E0,1.243249297E0,8.784085777E0
8.365681414E0,-2.359049320E0,-8.370409966E0,1.436588764E0,8.814344216E0
